"rt","stimulus","response","trial_type","trial_index","time_elapsed","internal_node_id","task","total_trials","block_size","key_left","key_right","init_prob_left","init_prob_right","start_time","phase","trial_index_zero","block_index","reversed","penalty_on_miss","prob_left","prob_right","timestamp","choice_key","rewarded","score_after"
"2401","
        <div class=""center"" style=""margin-top:14vh;"">
          <div style=""font-size:28px; margin-bottom:10px;"">게임 설명</div>
          <div>두 개의 상자 중 하나를 고르세요. 최대한 높은 Score를 기록하세요.</div>
          <div class=""small"" style=""margin-top:8px;"">총 600회 진행됩니다. 도중에 보상 확률과 감점 규칙이 바뀔 수 있습니다.</div>
          <div style=""margin-top:18px;"">
            <span class=""btn"">아무 키나 눌러 시작</span>
          </div>
        </div>
      ","arrowleft","html-keyboard-response","0","2402","0.0-0.0","LuckyBox_RN_to_RP","600","150","ArrowLeft","ArrowRight","0.7","0.3","2025-10-04T12:10:53.561Z","","","","","","","","","","",""
"","","","html-keyboard-response","1","2403","0.0-1.0","LuckyBox_RN_to_RP","600","150","ArrowLeft","ArrowRight","0.7","0.3","2025-10-04T12:10:53.561Z","choice","0","0","0","0","0.7","0.3","2025-10-04T12:10:55.983Z","","",""
"1073","
        <div class=""boxes"">
          <div>
            <div class=""box"">L</div>
            <div class=""label"">왼쪽 상자</div>
          </div>
          <div>
            <div class=""box"">R</div>
            <div class=""label"">오른쪽 상자</div>
          </div>
        </div>
        <div class=""keys"">키보드 <b>←</b> = 왼쪽 / <b>→</b> = 오른쪽</div>
      ","arrowleft","html-keyboard-response","1","3477","0.0-1.0","LuckyBox_RN_to_RP","600","150","ArrowLeft","ArrowRight","0.7","0.3","2025-10-04T12:10:53.561Z","choice","0","0","","0","0.7","0.3","2025-10-04T12:10:57.057Z","arrowleft","1","1"
"null","<div class=""feedback"">✅ 보상 +1</div>","null","html-keyboard-response","2","4180","0.0-2.0","LuckyBox_RN_to_RP","600","150","ArrowLeft","ArrowRight","0.7","0.3","2025-10-04T12:10:53.561Z","feedback","0","0","","","","","","","",""
"null","<div class=""center small"" style=""margin-top:16vh;"">잠시만요…</div>","null","html-keyboard-response","3","4583","0.0-3.0","LuckyBox_RN_to_RP","600","150","ArrowLeft","ArrowRight","0.7","0.3","2025-10-04T12:10:53.561Z","iti","0","0","","","","","","","",""
"123","
        <div class=""boxes"">
          <div>
            <div class=""box"">L</div>
            <div class=""label"">왼쪽 상자</div>
          </div>
          <div>
            <div class=""box"">R</div>
            <div class=""label"">오른쪽 상자</div>
          </div>
        </div>
        <div class=""keys"">키보드 <b>←</b> = 왼쪽 / <b>→</b> = 오른쪽</div>
      ","arrowright","html-keyboard-response","4","4708","0.0-4.0","LuckyBox_RN_to_RP","600","150","ArrowLeft","ArrowRight","0.7","0.3","2025-10-04T12:10:53.561Z","choice","1","0","","0","0.7","0.3","2025-10-04T12:10:58.288Z","arrowright","1","2"
"null","<div class=""feedback"">✅ 보상 +1</div>","null","html-keyboard-response","5","5410","0.0-5.0","LuckyBox_RN_to_RP","600","150","ArrowLeft","ArrowRight","0.7","0.3","2025-10-04T12:10:53.561Z","feedback","1","0","","","","","","","",""
"null","<div class=""center small"" style=""margin-top:16vh;"">잠시만요…</div>","null","html-keyboard-response","6","5811","0.0-6.0","LuckyBox_RN_to_RP","600","150","ArrowLeft","ArrowRight","0.7","0.3","2025-10-04T12:10:53.561Z","iti","1","0","","","","","","","",""
"1038","
        <div class=""boxes"">
          <div>
            <div class=""box"">L</div>
            <div class=""label"">왼쪽 상자</div>
          </div>
          <div>
            <div class=""box"">R</div>
            <div class=""label"">오른쪽 상자</div>
          </div>
        </div>
        <div class=""keys"">키보드 <b>←</b> = 왼쪽 / <b>→</b> = 오른쪽</div>
      ","arrowleft","html-keyboard-response","7","6851","0.0-7.0","LuckyBox_RN_to_RP","600","150","ArrowLeft","ArrowRight","0.7","0.3","2025-10-04T12:10:53.561Z","choice","2","0","","0","0.7","0.3","2025-10-04T12:11:00.431Z","arrowleft","0","2"
"null","<div class=""feedback"">⭕ 꽝 (감점 없음)</div>","null","html-keyboard-response","8","7553","0.0-8.0","LuckyBox_RN_to_RP","600","150","ArrowLeft","ArrowRight","0.7","0.3","2025-10-04T12:10:53.561Z","feedback","2","0","","","","","","","",""
"null","<div class=""center small"" style=""margin-top:16vh;"">잠시만요…</div>","null","html-keyboard-response","9","7956","0.0-9.0","LuckyBox_RN_to_RP","600","150","ArrowLeft","ArrowRight","0.7","0.3","2025-10-04T12:10:53.561Z","iti","2","0","","","","","","","",""
"287","
        <div class=""boxes"">
          <div>
            <div class=""box"">L</div>
            <div class=""label"">왼쪽 상자</div>
          </div>
          <div>
            <div class=""box"">R</div>
            <div class=""label"">오른쪽 상자</div>
          </div>
        </div>
        <div class=""keys"">키보드 <b>←</b> = 왼쪽 / <b>→</b> = 오른쪽</div>
      ","arrowright","html-keyboard-response","10","8245","0.0-10.0","LuckyBox_RN_to_RP","600","150","ArrowLeft","ArrowRight","0.7","0.3","2025-10-04T12:10:53.561Z","choice","3","0","","0","0.7","0.3","2025-10-04T12:11:01.825Z","arrowright","0","2"
"null","<div class=""feedback"">⭕ 꽝 (감점 없음)</div>","null","html-keyboard-response","11","8947","0.0-11.0","LuckyBox_RN_to_RP","600","150","ArrowLeft","ArrowRight","0.7","0.3","2025-10-04T12:10:53.561Z","feedback","3","0","","","","","","","",""
"null","<div class=""center small"" style=""margin-top:16vh;"">잠시만요…</div>","null","html-keyboard-response","12","9349","0.0-12.0","LuckyBox_RN_to_RP","600","150","ArrowLeft","ArrowRight","0.7","0.3","2025-10-04T12:10:53.561Z","iti","3","0","","","","","","","",""
"295","
        <div class=""boxes"">
          <div>
            <div class=""box"">L</div>
            <div class=""label"">왼쪽 상자</div>
          </div>
          <div>
            <div class=""box"">R</div>
            <div class=""label"">오른쪽 상자</div>
          </div>
        </div>
        <div class=""keys"">키보드 <b>←</b> = 왼쪽 / <b>→</b> = 오른쪽</div>
      ","arrowleft","html-keyboard-response","13","9645","0.0-13.0","LuckyBox_RN_to_RP","600","150","ArrowLeft","ArrowRight","0.7","0.3","2025-10-04T12:10:53.561Z","choice","4","0","","0","0.7","0.3","2025-10-04T12:11:03.225Z","arrowleft","0","2"
"null","<div class=""feedback"">⭕ 꽝 (감점 없음)</div>","null","html-keyboard-response","14","10348","0.0-14.0","LuckyBox_RN_to_RP","600","150","ArrowLeft","ArrowRight","0.7","0.3","2025-10-04T12:10:53.561Z","feedback","4","0","","","","","","","",""
"null","<div class=""center small"" style=""margin-top:16vh;"">잠시만요…</div>","null","html-keyboard-response","15","10751","0.0-15.0","LuckyBox_RN_to_RP","600","150","ArrowLeft","ArrowRight","0.7","0.3","2025-10-04T12:10:53.561Z","iti","4","0","","","","","","","",""
"232","
        <div class=""boxes"">
          <div>
            <div class=""box"">L</div>
            <div class=""label"">왼쪽 상자</div>
          </div>
          <div>
            <div class=""box"">R</div>
            <div class=""label"">오른쪽 상자</div>
          </div>
        </div>
        <div class=""keys"">키보드 <b>←</b> = 왼쪽 / <b>→</b> = 오른쪽</div>
      ","arrowleft","html-keyboard-response","16","10985","0.0-16.0","LuckyBox_RN_to_RP","600","150","ArrowLeft","ArrowRight","0.7","0.3","2025-10-04T12:10:53.561Z","choice","5","0","","0","0.7","0.3","2025-10-04T12:11:04.565Z","arrowleft","0","2"
"null","<div class=""feedback"">⭕ 꽝 (감점 없음)</div>","null","html-keyboard-response","17","11687","0.0-17.0","LuckyBox_RN_to_RP","600","150","ArrowLeft","ArrowRight","0.7","0.3","2025-10-04T12:10:53.561Z","feedback","5","0","","","","","","","",""
"null","<div class=""center small"" style=""margin-top:16vh;"">잠시만요…</div>","null","html-keyboard-response","18","12090","0.0-18.0","LuckyBox_RN_to_RP","600","150","ArrowLeft","ArrowRight","0.7","0.3","2025-10-04T12:10:53.561Z","iti","5","0","","","","","","","",""
"187","
        <div class=""boxes"">
          <div>
            <div class=""box"">L</div>
            <div class=""label"">왼쪽 상자</div>
          </div>
          <div>
            <div class=""box"">R</div>
            <div class=""label"">오른쪽 상자</div>
          </div>
        </div>
        <div class=""keys"">키보드 <b>←</b> = 왼쪽 / <b>→</b> = 오른쪽</div>
      ","arrowleft","html-keyboard-response","19","12279","0.0-19.0","LuckyBox_RN_to_RP","600","150","ArrowLeft","ArrowRight","0.7","0.3","2025-10-04T12:10:53.561Z","choice","6","0","","0","0.7","0.3","2025-10-04T12:11:05.859Z","arrowleft","0","2"
"null","<div class=""feedback"">⭕ 꽝 (감점 없음)</div>","null","html-keyboard-response","20","12982","0.0-20.0","LuckyBox_RN_to_RP","600","150","ArrowLeft","ArrowRight","0.7","0.3","2025-10-04T12:10:53.561Z","feedback","6","0","","","","","","","",""
"null","<div class=""center small"" style=""margin-top:16vh;"">잠시만요…</div>","null","html-keyboard-response","21","13384","0.0-21.0","LuckyBox_RN_to_RP","600","150","ArrowLeft","ArrowRight","0.7","0.3","2025-10-04T12:10:53.561Z","iti","6","0","","","","","","","",""
"111","
        <div class=""boxes"">
          <div>
            <div class=""box"">L</div>
            <div class=""label"">왼쪽 상자</div>
          </div>
          <div>
            <div class=""box"">R</div>
            <div class=""label"">오른쪽 상자</div>
          </div>
        </div>
        <div class=""keys"">키보드 <b>←</b> = 왼쪽 / <b>→</b> = 오른쪽</div>
      ","arrowleft","html-keyboard-response","22","13496","0.0-22.0","LuckyBox_RN_to_RP","600","150","ArrowLeft","ArrowRight","0.7","0.3","2025-10-04T12:10:53.561Z","choice","7","0","","0","0.7","0.3","2025-10-04T12:11:07.076Z","arrowleft","0","2"
"null","<div class=""feedback"">⭕ 꽝 (감점 없음)</div>","null","html-keyboard-response","23","14198","0.0-23.0","LuckyBox_RN_to_RP","600","150","ArrowLeft","ArrowRight","0.7","0.3","2025-10-04T12:10:53.561Z","feedback","7","0","","","","","","","",""
"null","<div class=""center small"" style=""margin-top:16vh;"">잠시만요…</div>","null","html-keyboard-response","24","14600","0.0-24.0","LuckyBox_RN_to_RP","600","150","ArrowLeft","ArrowRight","0.7","0.3","2025-10-04T12:10:53.561Z","iti","7","0","","","","","","","",""
"310","
        <div class=""boxes"">
          <div>
            <div class=""box"">L</div>
            <div class=""label"">왼쪽 상자</div>
          </div>
          <div>
            <div class=""box"">R</div>
            <div class=""label"">오른쪽 상자</div>
          </div>
        </div>
        <div class=""keys"">키보드 <b>←</b> = 왼쪽 / <b>→</b> = 오른쪽</div>
      ","arrowright","html-keyboard-response","25","14912","0.0-25.0","LuckyBox_RN_to_RP","600","150","ArrowLeft","ArrowRight","0.7","0.3","2025-10-04T12:10:53.561Z","choice","8","0","","0","0.7","0.3","2025-10-04T12:11:08.492Z","arrowright","1","3"
"null","<div class=""feedback"">✅ 보상 +1</div>","null","html-keyboard-response","26","15614","0.0-26.0","LuckyBox_RN_to_RP","600","150","ArrowLeft","ArrowRight","0.7","0.3","2025-10-04T12:10:53.561Z","feedback","8","0","","","","","","","",""
"null","<div class=""center small"" style=""margin-top:16vh;"">잠시만요…</div>","null","html-keyboard-response","27","16017","0.0-27.0","LuckyBox_RN_to_RP","600","150","ArrowLeft","ArrowRight","0.7","0.3","2025-10-04T12:10:53.561Z","iti","8","0","","","","","","","",""
"252","
        <div class=""boxes"">
          <div>
            <div class=""box"">L</div>
            <div class=""label"">왼쪽 상자</div>
          </div>
          <div>
            <div class=""box"">R</div>
            <div class=""label"">오른쪽 상자</div>
          </div>
        </div>
        <div class=""keys"">키보드 <b>←</b> = 왼쪽 / <b>→</b> = 오른쪽</div>
      ","arrowright","html-keyboard-response","28","16270","0.0-28.0","LuckyBox_RN_to_RP","600","150","ArrowLeft","ArrowRight","0.7","0.3","2025-10-04T12:10:53.561Z","choice","9","0","","0","0.7","0.3","2025-10-04T12:11:09.850Z","arrowright","0","3"
"null","<div class=""feedback"">⭕ 꽝 (감점 없음)</div>","null","html-keyboard-response","29","16972","0.0-29.0","LuckyBox_RN_to_RP","600","150","ArrowLeft","ArrowRight","0.7","0.3","2025-10-04T12:10:53.561Z","feedback","9","0","","","","","","","",""
"null","<div class=""center small"" style=""margin-top:16vh;"">잠시만요…</div>","null","html-keyboard-response","30","17375","0.0-30.0","LuckyBox_RN_to_RP","600","150","ArrowLeft","ArrowRight","0.7","0.3","2025-10-04T12:10:53.561Z","iti","9","0","","","","","","","",""
"99","
        <div class=""boxes"">
          <div>
            <div class=""box"">L</div>
            <div class=""label"">왼쪽 상자</div>
          </div>
          <div>
            <div class=""box"">R</div>
            <div class=""label"">오른쪽 상자</div>
          </div>
        </div>
        <div class=""keys"">키보드 <b>←</b> = 왼쪽 / <b>→</b> = 오른쪽</div>
      ","arrowright","html-keyboard-response","31","17475","0.0-31.0","LuckyBox_RN_to_RP","600","150","ArrowLeft","ArrowRight","0.7","0.3","2025-10-04T12:10:53.561Z","choice","10","0","","0","0.7","0.3","2025-10-04T12:11:11.055Z","arrowright","0","3"
"null","<div class=""feedback"">⭕ 꽝 (감점 없음)</div>","null","html-keyboard-response","32","18177","0.0-32.0","LuckyBox_RN_to_RP","600","150","ArrowLeft","ArrowRight","0.7","0.3","2025-10-04T12:10:53.561Z","feedback","10","0","","","","","","","",""
"null","<div class=""center small"" style=""margin-top:16vh;"">잠시만요…</div>","null","html-keyboard-response","33","18579","0.0-33.0","LuckyBox_RN_to_RP","600","150","ArrowLeft","ArrowRight","0.7","0.3","2025-10-04T12:10:53.561Z","iti","10","0","","","","","","","",""
"70","
        <div class=""boxes"">
          <div>
            <div class=""box"">L</div>
            <div class=""label"">왼쪽 상자</div>
          </div>
          <div>
            <div class=""box"">R</div>
            <div class=""label"">오른쪽 상자</div>
          </div>
        </div>
        <div class=""keys"">키보드 <b>←</b> = 왼쪽 / <b>→</b> = 오른쪽</div>
      ","arrowright","html-keyboard-response","34","18650","0.0-34.0","LuckyBox_RN_to_RP","600","150","ArrowLeft","ArrowRight","0.7","0.3","2025-10-04T12:10:53.561Z","choice","11","0","","0","0.7","0.3","2025-10-04T12:11:12.230Z","arrowright","0","3"
"null","<div class=""feedback"">⭕ 꽝 (감점 없음)</div>","null","html-keyboard-response","35","19352","0.0-35.0","LuckyBox_RN_to_RP","600","150","ArrowLeft","ArrowRight","0.7","0.3","2025-10-04T12:10:53.561Z","feedback","11","0","","","","","","","",""
"null","<div class=""center small"" style=""margin-top:16vh;"">잠시만요…</div>","null","html-keyboard-response","36","19754","0.0-36.0","LuckyBox_RN_to_RP","600","150","ArrowLeft","ArrowRight","0.7","0.3","2025-10-04T12:10:53.561Z","iti","11","0","","","","","","","",""
"497","
        <div class=""boxes"">
          <div>
            <div class=""box"">L</div>
            <div class=""label"">왼쪽 상자</div>
          </div>
          <div>
            <div class=""box"">R</div>
            <div class=""label"">오른쪽 상자</div>
          </div>
        </div>
        <div class=""keys"">키보드 <b>←</b> = 왼쪽 / <b>→</b> = 오른쪽</div>
      ","arrowleft","html-keyboard-response","37","20253","0.0-37.0","LuckyBox_RN_to_RP","600","150","ArrowLeft","ArrowRight","0.7","0.3","2025-10-04T12:10:53.561Z","choice","12","0","","0","0.7","0.3","2025-10-04T12:11:13.833Z","arrowleft","0","3"
"null","<div class=""feedback"">⭕ 꽝 (감점 없음)</div>","null","html-keyboard-response","38","20955","0.0-38.0","LuckyBox_RN_to_RP","600","150","ArrowLeft","ArrowRight","0.7","0.3","2025-10-04T12:10:53.561Z","feedback","12","0","","","","","","","",""
"null","<div class=""center small"" style=""margin-top:16vh;"">잠시만요…</div>","null","html-keyboard-response","39","21358","0.0-39.0","LuckyBox_RN_to_RP","600","150","ArrowLeft","ArrowRight","0.7","0.3","2025-10-04T12:10:53.561Z","iti","12","0","","","","","","","",""
"29","
        <div class=""boxes"">
          <div>
            <div class=""box"">L</div>
            <div class=""label"">왼쪽 상자</div>
          </div>
          <div>
            <div class=""box"">R</div>
            <div class=""label"">오른쪽 상자</div>
          </div>
        </div>
        <div class=""keys"">키보드 <b>←</b> = 왼쪽 / <b>→</b> = 오른쪽</div>
      ","arrowright","html-keyboard-response","40","21388","0.0-40.0","LuckyBox_RN_to_RP","600","150","ArrowLeft","ArrowRight","0.7","0.3","2025-10-04T12:10:53.561Z","choice","13","0","","0","0.7","0.3","2025-10-04T12:11:14.969Z","arrowright","1","4"
"null","<div class=""feedback"">✅ 보상 +1</div>","null","html-keyboard-response","41","22090","0.0-41.0","LuckyBox_RN_to_RP","600","150","ArrowLeft","ArrowRight","0.7","0.3","2025-10-04T12:10:53.561Z","feedback","13","0","","","","","","","",""
"null","<div class=""center small"" style=""margin-top:16vh;"">잠시만요…</div>","null","html-keyboard-response","42","22493","0.0-42.0","LuckyBox_RN_to_RP","600","150","ArrowLeft","ArrowRight","0.7","0.3","2025-10-04T12:10:53.561Z","iti","13","0","","","","","","","",""
"312","
        <div class=""boxes"">
          <div>
            <div class=""box"">L</div>
            <div class=""label"">왼쪽 상자</div>
          </div>
          <div>
            <div class=""box"">R</div>
            <div class=""label"">오른쪽 상자</div>
          </div>
        </div>
        <div class=""keys"">키보드 <b>←</b> = 왼쪽 / <b>→</b> = 오른쪽</div>
      ","arrowright","html-keyboard-response","43","22806","0.0-43.0","LuckyBox_RN_to_RP","600","150","ArrowLeft","ArrowRight","0.7","0.3","2025-10-04T12:10:53.561Z","choice","14","0","","0","0.7","0.3","2025-10-04T12:11:16.386Z","arrowright","0","4"
"null","<div class=""feedback"">⭕ 꽝 (감점 없음)</div>","null","html-keyboard-response","44","23508","0.0-44.0","LuckyBox_RN_to_RP","600","150","ArrowLeft","ArrowRight","0.7","0.3","2025-10-04T12:10:53.561Z","feedback","14","0","","","","","","","",""
"null","<div class=""center small"" style=""margin-top:16vh;"">잠시만요…</div>","null","html-keyboard-response","45","23910","0.0-45.0","LuckyBox_RN_to_RP","600","150","ArrowLeft","ArrowRight","0.7","0.3","2025-10-04T12:10:53.561Z","iti","14","0","","","","","","","",""
"327","
        <div class=""boxes"">
          <div>
            <div class=""box"">L</div>
            <div class=""label"">왼쪽 상자</div>
          </div>
          <div>
            <div class=""box"">R</div>
            <div class=""label"">오른쪽 상자</div>
          </div>
        </div>
        <div class=""keys"">키보드 <b>←</b> = 왼쪽 / <b>→</b> = 오른쪽</div>
      ","arrowleft","html-keyboard-response","46","24238","0.0-46.0","LuckyBox_RN_to_RP","600","150","ArrowLeft","ArrowRight","0.7","0.3","2025-10-04T12:10:53.561Z","choice","15","0","","0","0.7","0.3","2025-10-04T12:11:17.818Z","arrowleft","0","4"
"null","<div class=""feedback"">⭕ 꽝 (감점 없음)</div>","null","html-keyboard-response","47","24940","0.0-47.0","LuckyBox_RN_to_RP","600","150","ArrowLeft","ArrowRight","0.7","0.3","2025-10-04T12:10:53.561Z","feedback","15","0","","","","","","","",""
"null","<div class=""center small"" style=""margin-top:16vh;"">잠시만요…</div>","null","html-keyboard-response","48","25342","0.0-48.0","LuckyBox_RN_to_RP","600","150","ArrowLeft","ArrowRight","0.7","0.3","2025-10-04T12:10:53.561Z","iti","15","0","","","","","","","",""
"159","
        <div class=""boxes"">
          <div>
            <div class=""box"">L</div>
            <div class=""label"">왼쪽 상자</div>
          </div>
          <div>
            <div class=""box"">R</div>
            <div class=""label"">오른쪽 상자</div>
          </div>
        </div>
        <div class=""keys"">키보드 <b>←</b> = 왼쪽 / <b>→</b> = 오른쪽</div>
      ","arrowright","html-keyboard-response","49","25502","0.0-49.0","LuckyBox_RN_to_RP","600","150","ArrowLeft","ArrowRight","0.7","0.3","2025-10-04T12:10:53.561Z","choice","16","0","","0","0.7","0.3","2025-10-04T12:11:19.082Z","arrowright","0","4"
"null","<div class=""feedback"">⭕ 꽝 (감점 없음)</div>","null","html-keyboard-response","50","26204","0.0-50.0","LuckyBox_RN_to_RP","600","150","ArrowLeft","ArrowRight","0.7","0.3","2025-10-04T12:10:53.561Z","feedback","16","0","","","","","","","",""
"null","<div class=""center small"" style=""margin-top:16vh;"">잠시만요…</div>","null","html-keyboard-response","51","26606","0.0-51.0","LuckyBox_RN_to_RP","600","150","ArrowLeft","ArrowRight","0.7","0.3","2025-10-04T12:10:53.561Z","iti","16","0","","","","","","","",""
"151","
        <div class=""boxes"">
          <div>
            <div class=""box"">L</div>
            <div class=""label"">왼쪽 상자</div>
          </div>
          <div>
            <div class=""box"">R</div>
            <div class=""label"">오른쪽 상자</div>
          </div>
        </div>
        <div class=""keys"">키보드 <b>←</b> = 왼쪽 / <b>→</b> = 오른쪽</div>
      ","arrowleft","html-keyboard-response","52","26758","0.0-52.0","LuckyBox_RN_to_RP","600","150","ArrowLeft","ArrowRight","0.7","0.3","2025-10-04T12:10:53.561Z","choice","17","0","","0","0.7","0.3","2025-10-04T12:11:20.338Z","arrowleft","0","4"
"null","<div class=""feedback"">⭕ 꽝 (감점 없음)</div>","null","html-keyboard-response","53","27460","0.0-53.0","LuckyBox_RN_to_RP","600","150","ArrowLeft","ArrowRight","0.7","0.3","2025-10-04T12:10:53.561Z","feedback","17","0","","","","","","","",""
"null","<div class=""center small"" style=""margin-top:16vh;"">잠시만요…</div>","null","html-keyboard-response","54","27861","0.0-54.0","LuckyBox_RN_to_RP","600","150","ArrowLeft","ArrowRight","0.7","0.3","2025-10-04T12:10:53.561Z","iti","17","0","","","","","","","",""
"160","
        <div class=""boxes"">
          <div>
            <div class=""box"">L</div>
            <div class=""label"">왼쪽 상자</div>
          </div>
          <div>
            <div class=""box"">R</div>
            <div class=""label"">오른쪽 상자</div>
          </div>
        </div>
        <div class=""keys"">키보드 <b>←</b> = 왼쪽 / <b>→</b> = 오른쪽</div>
      ","arrowright","html-keyboard-response","55","28023","0.0-55.0","LuckyBox_RN_to_RP","600","150","ArrowLeft","ArrowRight","0.7","0.3","2025-10-04T12:10:53.561Z","choice","18","0","","0","0.7","0.3","2025-10-04T12:11:21.603Z","arrowright","0","4"
"null","<div class=""feedback"">⭕ 꽝 (감점 없음)</div>","null","html-keyboard-response","56","28726","0.0-56.0","LuckyBox_RN_to_RP","600","150","ArrowLeft","ArrowRight","0.7","0.3","2025-10-04T12:10:53.561Z","feedback","18","0","","","","","","","",""
"null","<div class=""center small"" style=""margin-top:16vh;"">잠시만요…</div>","null","html-keyboard-response","57","29128","0.0-57.0","LuckyBox_RN_to_RP","600","150","ArrowLeft","ArrowRight","0.7","0.3","2025-10-04T12:10:53.561Z","iti","18","0","","","","","","","",""
"132","
        <div class=""boxes"">
          <div>
            <div class=""box"">L</div>
            <div class=""label"">왼쪽 상자</div>
          </div>
          <div>
            <div class=""box"">R</div>
            <div class=""label"">오른쪽 상자</div>
          </div>
        </div>
        <div class=""keys"">키보드 <b>←</b> = 왼쪽 / <b>→</b> = 오른쪽</div>
      ","arrowright","html-keyboard-response","58","29262","0.0-58.0","LuckyBox_RN_to_RP","600","150","ArrowLeft","ArrowRight","0.7","0.3","2025-10-04T12:10:53.561Z","choice","19","0","","0","0.7","0.3","2025-10-04T12:11:22.842Z","arrowright","1","5"
"null","<div class=""feedback"">✅ 보상 +1</div>","null","html-keyboard-response","59","29963","0.0-59.0","LuckyBox_RN_to_RP","600","150","ArrowLeft","ArrowRight","0.7","0.3","2025-10-04T12:10:53.561Z","feedback","19","0","","","","","","","",""
"null","<div class=""center small"" style=""margin-top:16vh;"">잠시만요…</div>","null","html-keyboard-response","60","30365","0.0-60.0","LuckyBox_RN_to_RP","600","150","ArrowLeft","ArrowRight","0.7","0.3","2025-10-04T12:10:53.561Z","iti","19","0","","","","","","","",""
"89","
        <div class=""boxes"">
          <div>
            <div class=""box"">L</div>
            <div class=""label"">왼쪽 상자</div>
          </div>
          <div>
            <div class=""box"">R</div>
            <div class=""label"">오른쪽 상자</div>
          </div>
        </div>
        <div class=""keys"">키보드 <b>←</b> = 왼쪽 / <b>→</b> = 오른쪽</div>
      ","arrowright","html-keyboard-response","61","30455","0.0-61.0","LuckyBox_RN_to_RP","600","150","ArrowLeft","ArrowRight","0.7","0.3","2025-10-04T12:10:53.561Z","choice","20","0","","0","0.7","0.3","2025-10-04T12:11:24.036Z","arrowright","0","5"
"null","<div class=""feedback"">⭕ 꽝 (감점 없음)</div>","null","html-keyboard-response","62","31158","0.0-62.0","LuckyBox_RN_to_RP","600","150","ArrowLeft","ArrowRight","0.7","0.3","2025-10-04T12:10:53.561Z","feedback","20","0","","","","","","","",""
"null","<div class=""center small"" style=""margin-top:16vh;"">잠시만요…</div>","null","html-keyboard-response","63","31560","0.0-63.0","LuckyBox_RN_to_RP","600","150","ArrowLeft","ArrowRight","0.7","0.3","2025-10-04T12:10:53.561Z","iti","20","0","","","","","","","",""
"77","
        <div class=""boxes"">
          <div>
            <div class=""box"">L</div>
            <div class=""label"">왼쪽 상자</div>
          </div>
          <div>
            <div class=""box"">R</div>
            <div class=""label"">오른쪽 상자</div>
          </div>
        </div>
        <div class=""keys"">키보드 <b>←</b> = 왼쪽 / <b>→</b> = 오른쪽</div>
      ","arrowright","html-keyboard-response","64","31638","0.0-64.0","LuckyBox_RN_to_RP","600","150","ArrowLeft","ArrowRight","0.7","0.3","2025-10-04T12:10:53.561Z","choice","21","0","","0","0.7","0.3","2025-10-04T12:11:25.218Z","arrowright","1","6"
"null","<div class=""feedback"">✅ 보상 +1</div>","null","html-keyboard-response","65","32341","0.0-65.0","LuckyBox_RN_to_RP","600","150","ArrowLeft","ArrowRight","0.7","0.3","2025-10-04T12:10:53.561Z","feedback","21","0","","","","","","","",""
"null","<div class=""center small"" style=""margin-top:16vh;"">잠시만요…</div>","null","html-keyboard-response","66","32743","0.0-66.0","LuckyBox_RN_to_RP","600","150","ArrowLeft","ArrowRight","0.7","0.3","2025-10-04T12:10:53.561Z","iti","21","0","","","","","","","",""
"234","
        <div class=""boxes"">
          <div>
            <div class=""box"">L</div>
            <div class=""label"">왼쪽 상자</div>
          </div>
          <div>
            <div class=""box"">R</div>
            <div class=""label"">오른쪽 상자</div>
          </div>
        </div>
        <div class=""keys"">키보드 <b>←</b> = 왼쪽 / <b>→</b> = 오른쪽</div>
      ","arrowright","html-keyboard-response","67","32978","0.0-67.0","LuckyBox_RN_to_RP","600","150","ArrowLeft","ArrowRight","0.7","0.3","2025-10-04T12:10:53.561Z","choice","22","0","","0","0.7","0.3","2025-10-04T12:11:26.558Z","arrowright","0","6"
"null","<div class=""feedback"">⭕ 꽝 (감점 없음)</div>","null","html-keyboard-response","68","33680","0.0-68.0","LuckyBox_RN_to_RP","600","150","ArrowLeft","ArrowRight","0.7","0.3","2025-10-04T12:10:53.561Z","feedback","22","0","","","","","","","",""
"null","<div class=""center small"" style=""margin-top:16vh;"">잠시만요…</div>","null","html-keyboard-response","69","34083","0.0-69.0","LuckyBox_RN_to_RP","600","150","ArrowLeft","ArrowRight","0.7","0.3","2025-10-04T12:10:53.561Z","iti","22","0","","","","","","","",""
"6","
        <div class=""boxes"">
          <div>
            <div class=""box"">L</div>
            <div class=""label"">왼쪽 상자</div>
          </div>
          <div>
            <div class=""box"">R</div>
            <div class=""label"">오른쪽 상자</div>
          </div>
        </div>
        <div class=""keys"">키보드 <b>←</b> = 왼쪽 / <b>→</b> = 오른쪽</div>
      ","arrowright","html-keyboard-response","70","34092","0.0-70.0","LuckyBox_RN_to_RP","600","150","ArrowLeft","ArrowRight","0.7","0.3","2025-10-04T12:10:53.561Z","choice","23","0","","0","0.7","0.3","2025-10-04T12:11:27.672Z","arrowright","0","6"
"null","<div class=""feedback"">⭕ 꽝 (감점 없음)</div>","null","html-keyboard-response","71","34794","0.0-71.0","LuckyBox_RN_to_RP","600","150","ArrowLeft","ArrowRight","0.7","0.3","2025-10-04T12:10:53.561Z","feedback","23","0","","","","","","","",""
"null","<div class=""center small"" style=""margin-top:16vh;"">잠시만요…</div>","null","html-keyboard-response","72","35196","0.0-72.0","LuckyBox_RN_to_RP","600","150","ArrowLeft","ArrowRight","0.7","0.3","2025-10-04T12:10:53.561Z","iti","23","0","","","","","","","",""
"307","
        <div class=""boxes"">
          <div>
            <div class=""box"">L</div>
            <div class=""label"">왼쪽 상자</div>
          </div>
          <div>
            <div class=""box"">R</div>
            <div class=""label"">오른쪽 상자</div>
          </div>
        </div>
        <div class=""keys"">키보드 <b>←</b> = 왼쪽 / <b>→</b> = 오른쪽</div>
      ","arrowleft","html-keyboard-response","73","35505","0.0-73.0","LuckyBox_RN_to_RP","600","150","ArrowLeft","ArrowRight","0.7","0.3","2025-10-04T12:10:53.561Z","choice","24","0","","0","0.7","0.3","2025-10-04T12:11:29.085Z","arrowleft","0","6"
"null","<div class=""feedback"">⭕ 꽝 (감점 없음)</div>","null","html-keyboard-response","74","36207","0.0-74.0","LuckyBox_RN_to_RP","600","150","ArrowLeft","ArrowRight","0.7","0.3","2025-10-04T12:10:53.561Z","feedback","24","0","","","","","","","",""
"null","<div class=""center small"" style=""margin-top:16vh;"">잠시만요…</div>","null","html-keyboard-response","75","36609","0.0-75.0","LuckyBox_RN_to_RP","600","150","ArrowLeft","ArrowRight","0.7","0.3","2025-10-04T12:10:53.561Z","iti","24","0","","","","","","","",""
"70","
        <div class=""boxes"">
          <div>
            <div class=""box"">L</div>
            <div class=""label"">왼쪽 상자</div>
          </div>
          <div>
            <div class=""box"">R</div>
            <div class=""label"">오른쪽 상자</div>
          </div>
        </div>
        <div class=""keys"">키보드 <b>←</b> = 왼쪽 / <b>→</b> = 오른쪽</div>
      ","arrowright","html-keyboard-response","76","36679","0.0-76.0","LuckyBox_RN_to_RP","600","150","ArrowLeft","ArrowRight","0.7","0.3","2025-10-04T12:10:53.561Z","choice","25","0","","0","0.7","0.3","2025-10-04T12:11:30.259Z","arrowright","1","7"
"null","<div class=""feedback"">✅ 보상 +1</div>","null","html-keyboard-response","77","37381","0.0-77.0","LuckyBox_RN_to_RP","600","150","ArrowLeft","ArrowRight","0.7","0.3","2025-10-04T12:10:53.561Z","feedback","25","0","","","","","","","",""
"null","<div class=""center small"" style=""margin-top:16vh;"">잠시만요…</div>","null","html-keyboard-response","78","37783","0.0-78.0","LuckyBox_RN_to_RP","600","150","ArrowLeft","ArrowRight","0.7","0.3","2025-10-04T12:10:53.561Z","iti","25","0","","","","","","","",""
"176","
        <div class=""boxes"">
          <div>
            <div class=""box"">L</div>
            <div class=""label"">왼쪽 상자</div>
          </div>
          <div>
            <div class=""box"">R</div>
            <div class=""label"">오른쪽 상자</div>
          </div>
        </div>
        <div class=""keys"">키보드 <b>←</b> = 왼쪽 / <b>→</b> = 오른쪽</div>
      ","arrowright","html-keyboard-response","79","37962","0.0-79.0","LuckyBox_RN_to_RP","600","150","ArrowLeft","ArrowRight","0.7","0.3","2025-10-04T12:10:53.561Z","choice","26","0","","0","0.7","0.3","2025-10-04T12:11:31.542Z","arrowright","0","7"
"null","<div class=""feedback"">⭕ 꽝 (감점 없음)</div>","null","html-keyboard-response","80","38665","0.0-80.0","LuckyBox_RN_to_RP","600","150","ArrowLeft","ArrowRight","0.7","0.3","2025-10-04T12:10:53.561Z","feedback","26","0","","","","","","","",""
"null","<div class=""center small"" style=""margin-top:16vh;"">잠시만요…</div>","null","html-keyboard-response","81","39066","0.0-81.0","LuckyBox_RN_to_RP","600","150","ArrowLeft","ArrowRight","0.7","0.3","2025-10-04T12:10:53.561Z","iti","26","0","","","","","","","",""
"201","
        <div class=""boxes"">
          <div>
            <div class=""box"">L</div>
            <div class=""label"">왼쪽 상자</div>
          </div>
          <div>
            <div class=""box"">R</div>
            <div class=""label"">오른쪽 상자</div>
          </div>
        </div>
        <div class=""keys"">키보드 <b>←</b> = 왼쪽 / <b>→</b> = 오른쪽</div>
      ","arrowleft","html-keyboard-response","82","39270","0.0-82.0","LuckyBox_RN_to_RP","600","150","ArrowLeft","ArrowRight","0.7","0.3","2025-10-04T12:10:53.561Z","choice","27","0","","0","0.7","0.3","2025-10-04T12:11:32.850Z","arrowleft","0","7"
"null","<div class=""feedback"">⭕ 꽝 (감점 없음)</div>","null","html-keyboard-response","83","39973","0.0-83.0","LuckyBox_RN_to_RP","600","150","ArrowLeft","ArrowRight","0.7","0.3","2025-10-04T12:10:53.561Z","feedback","27","0","","","","","","","",""
"null","<div class=""center small"" style=""margin-top:16vh;"">잠시만요…</div>","null","html-keyboard-response","84","40375","0.0-84.0","LuckyBox_RN_to_RP","600","150","ArrowLeft","ArrowRight","0.7","0.3","2025-10-04T12:10:53.561Z","iti","27","0","","","","","","","",""
"123","
        <div class=""boxes"">
          <div>
            <div class=""box"">L</div>
            <div class=""label"">왼쪽 상자</div>
          </div>
          <div>
            <div class=""box"">R</div>
            <div class=""label"">오른쪽 상자</div>
          </div>
        </div>
        <div class=""keys"">키보드 <b>←</b> = 왼쪽 / <b>→</b> = 오른쪽</div>
      ","arrowright","html-keyboard-response","85","40500","0.0-85.0","LuckyBox_RN_to_RP","600","150","ArrowLeft","ArrowRight","0.7","0.3","2025-10-04T12:10:53.561Z","choice","28","0","","0","0.7","0.3","2025-10-04T12:11:34.080Z","arrowright","0","7"
"null","<div class=""feedback"">⭕ 꽝 (감점 없음)</div>","null","html-keyboard-response","86","41202","0.0-86.0","LuckyBox_RN_to_RP","600","150","ArrowLeft","ArrowRight","0.7","0.3","2025-10-04T12:10:53.561Z","feedback","28","0","","","","","","","",""
"null","<div class=""center small"" style=""margin-top:16vh;"">잠시만요…</div>","null","html-keyboard-response","87","41605","0.0-87.0","LuckyBox_RN_to_RP","600","150","ArrowLeft","ArrowRight","0.7","0.3","2025-10-04T12:10:53.561Z","iti","28","0","","","","","","","",""
"46","
        <div class=""boxes"">
          <div>
            <div class=""box"">L</div>
            <div class=""label"">왼쪽 상자</div>
          </div>
          <div>
            <div class=""box"">R</div>
            <div class=""label"">오른쪽 상자</div>
          </div>
        </div>
        <div class=""keys"">키보드 <b>←</b> = 왼쪽 / <b>→</b> = 오른쪽</div>
      ","arrowright","html-keyboard-response","88","41652","0.0-88.0","LuckyBox_RN_to_RP","600","150","ArrowLeft","ArrowRight","0.7","0.3","2025-10-04T12:10:53.561Z","choice","29","0","","0","0.7","0.3","2025-10-04T12:11:35.232Z","arrowright","1","8"
"null","<div class=""feedback"">✅ 보상 +1</div>","null","html-keyboard-response","89","42355","0.0-89.0","LuckyBox_RN_to_RP","600","150","ArrowLeft","ArrowRight","0.7","0.3","2025-10-04T12:10:53.561Z","feedback","29","0","","","","","","","",""
"null","<div class=""center small"" style=""margin-top:16vh;"">잠시만요…</div>","null","html-keyboard-response","90","42757","0.0-90.0","LuckyBox_RN_to_RP","600","150","ArrowLeft","ArrowRight","0.7","0.3","2025-10-04T12:10:53.561Z","iti","29","0","","","","","","","",""
"72","
        <div class=""boxes"">
          <div>
            <div class=""box"">L</div>
            <div class=""label"">왼쪽 상자</div>
          </div>
          <div>
            <div class=""box"">R</div>
            <div class=""label"">오른쪽 상자</div>
          </div>
        </div>
        <div class=""keys"">키보드 <b>←</b> = 왼쪽 / <b>→</b> = 오른쪽</div>
      ","arrowright","html-keyboard-response","91","42831","0.0-91.0","LuckyBox_RN_to_RP","600","150","ArrowLeft","ArrowRight","0.7","0.3","2025-10-04T12:10:53.561Z","choice","30","0","","0","0.7","0.3","2025-10-04T12:11:36.411Z","arrowright","0","8"
"null","<div class=""feedback"">⭕ 꽝 (감점 없음)</div>","null","html-keyboard-response","92","43534","0.0-92.0","LuckyBox_RN_to_RP","600","150","ArrowLeft","ArrowRight","0.7","0.3","2025-10-04T12:10:53.561Z","feedback","30","0","","","","","","","",""
"null","<div class=""center small"" style=""margin-top:16vh;"">잠시만요…</div>","null","html-keyboard-response","93","43935","0.0-93.0","LuckyBox_RN_to_RP","600","150","ArrowLeft","ArrowRight","0.7","0.3","2025-10-04T12:10:53.561Z","iti","30","0","","","","","","","",""
"44","
        <div class=""boxes"">
          <div>
            <div class=""box"">L</div>
            <div class=""label"">왼쪽 상자</div>
          </div>
          <div>
            <div class=""box"">R</div>
            <div class=""label"">오른쪽 상자</div>
          </div>
        </div>
        <div class=""keys"">키보드 <b>←</b> = 왼쪽 / <b>→</b> = 오른쪽</div>
      ","arrowright","html-keyboard-response","94","43981","0.0-94.0","LuckyBox_RN_to_RP","600","150","ArrowLeft","ArrowRight","0.7","0.3","2025-10-04T12:10:53.561Z","choice","31","0","","0","0.7","0.3","2025-10-04T12:11:37.561Z","arrowright","0","8"
"null","<div class=""feedback"">⭕ 꽝 (감점 없음)</div>","null","html-keyboard-response","95","44684","0.0-95.0","LuckyBox_RN_to_RP","600","150","ArrowLeft","ArrowRight","0.7","0.3","2025-10-04T12:10:53.561Z","feedback","31","0","","","","","","","",""
"null","<div class=""center small"" style=""margin-top:16vh;"">잠시만요…</div>","null","html-keyboard-response","96","45086","0.0-96.0","LuckyBox_RN_to_RP","600","150","ArrowLeft","ArrowRight","0.7","0.3","2025-10-04T12:10:53.561Z","iti","31","0","","","","","","","",""
"448","
        <div class=""boxes"">
          <div>
            <div class=""box"">L</div>
            <div class=""label"">왼쪽 상자</div>
          </div>
          <div>
            <div class=""box"">R</div>
            <div class=""label"">오른쪽 상자</div>
          </div>
        </div>
        <div class=""keys"">키보드 <b>←</b> = 왼쪽 / <b>→</b> = 오른쪽</div>
      ","arrowright","html-keyboard-response","97","45535","0.0-97.0","LuckyBox_RN_to_RP","600","150","ArrowLeft","ArrowRight","0.7","0.3","2025-10-04T12:10:53.561Z","choice","32","0","","0","0.7","0.3","2025-10-04T12:11:39.115Z","arrowright","0","8"
"null","<div class=""feedback"">⭕ 꽝 (감점 없음)</div>","null","html-keyboard-response","98","46238","0.0-98.0","LuckyBox_RN_to_RP","600","150","ArrowLeft","ArrowRight","0.7","0.3","2025-10-04T12:10:53.561Z","feedback","32","0","","","","","","","",""
"null","<div class=""center small"" style=""margin-top:16vh;"">잠시만요…</div>","null","html-keyboard-response","99","46640","0.0-99.0","LuckyBox_RN_to_RP","600","150","ArrowLeft","ArrowRight","0.7","0.3","2025-10-04T12:10:53.561Z","iti","32","0","","","","","","","",""
"562","
        <div class=""boxes"">
          <div>
            <div class=""box"">L</div>
            <div class=""label"">왼쪽 상자</div>
          </div>
          <div>
            <div class=""box"">R</div>
            <div class=""label"">오른쪽 상자</div>
          </div>
        </div>
        <div class=""keys"">키보드 <b>←</b> = 왼쪽 / <b>→</b> = 오른쪽</div>
      ","arrowright","html-keyboard-response","100","47204","0.0-100.0","LuckyBox_RN_to_RP","600","150","ArrowLeft","ArrowRight","0.7","0.3","2025-10-04T12:10:53.561Z","choice","33","0","","0","0.7","0.3","2025-10-04T12:11:40.784Z","arrowright","0","8"
"null","<div class=""feedback"">⭕ 꽝 (감점 없음)</div>","null","html-keyboard-response","101","47907","0.0-101.0","LuckyBox_RN_to_RP","600","150","ArrowLeft","ArrowRight","0.7","0.3","2025-10-04T12:10:53.561Z","feedback","33","0","","","","","","","",""
"null","<div class=""center small"" style=""margin-top:16vh;"">잠시만요…</div>","null","html-keyboard-response","102","48309","0.0-102.0","LuckyBox_RN_to_RP","600","150","ArrowLeft","ArrowRight","0.7","0.3","2025-10-04T12:10:53.561Z","iti","33","0","","","","","","","",""
"13","
        <div class=""boxes"">
          <div>
            <div class=""box"">L</div>
            <div class=""label"">왼쪽 상자</div>
          </div>
          <div>
            <div class=""box"">R</div>
            <div class=""label"">오른쪽 상자</div>
          </div>
        </div>
        <div class=""keys"">키보드 <b>←</b> = 왼쪽 / <b>→</b> = 오른쪽</div>
      ","arrowright","html-keyboard-response","103","48323","0.0-103.0","LuckyBox_RN_to_RP","600","150","ArrowLeft","ArrowRight","0.7","0.3","2025-10-04T12:10:53.561Z","choice","34","0","","0","0.7","0.3","2025-10-04T12:11:41.903Z","arrowright","1","9"
"null","<div class=""feedback"">✅ 보상 +1</div>","null","html-keyboard-response","104","49025","0.0-104.0","LuckyBox_RN_to_RP","600","150","ArrowLeft","ArrowRight","0.7","0.3","2025-10-04T12:10:53.561Z","feedback","34","0","","","","","","","",""
"null","<div class=""center small"" style=""margin-top:16vh;"">잠시만요…</div>","null","html-keyboard-response","105","49427","0.0-105.0","LuckyBox_RN_to_RP","600","150","ArrowLeft","ArrowRight","0.7","0.3","2025-10-04T12:10:53.561Z","iti","34","0","","","","","","","",""
"473","
        <div class=""boxes"">
          <div>
            <div class=""box"">L</div>
            <div class=""label"">왼쪽 상자</div>
          </div>
          <div>
            <div class=""box"">R</div>
            <div class=""label"">오른쪽 상자</div>
          </div>
        </div>
        <div class=""keys"">키보드 <b>←</b> = 왼쪽 / <b>→</b> = 오른쪽</div>
      ","arrowright","html-keyboard-response","106","49901","0.0-106.0","LuckyBox_RN_to_RP","600","150","ArrowLeft","ArrowRight","0.7","0.3","2025-10-04T12:10:53.561Z","choice","35","0","","0","0.7","0.3","2025-10-04T12:11:43.481Z","arrowright","0","9"
"null","<div class=""feedback"">⭕ 꽝 (감점 없음)</div>","null","html-keyboard-response","107","50603","0.0-107.0","LuckyBox_RN_to_RP","600","150","ArrowLeft","ArrowRight","0.7","0.3","2025-10-04T12:10:53.561Z","feedback","35","0","","","","","","","",""
"null","<div class=""center small"" style=""margin-top:16vh;"">잠시만요…</div>","null","html-keyboard-response","108","51006","0.0-108.0","LuckyBox_RN_to_RP","600","150","ArrowLeft","ArrowRight","0.7","0.3","2025-10-04T12:10:53.561Z","iti","35","0","","","","","","","",""
"275","
        <div class=""boxes"">
          <div>
            <div class=""box"">L</div>
            <div class=""label"">왼쪽 상자</div>
          </div>
          <div>
            <div class=""box"">R</div>
            <div class=""label"">오른쪽 상자</div>
          </div>
        </div>
        <div class=""keys"">키보드 <b>←</b> = 왼쪽 / <b>→</b> = 오른쪽</div>
      ","arrowright","html-keyboard-response","109","51283","0.0-109.0","LuckyBox_RN_to_RP","600","150","ArrowLeft","ArrowRight","0.7","0.3","2025-10-04T12:10:53.561Z","choice","36","0","","0","0.7","0.3","2025-10-04T12:11:44.863Z","arrowright","0","9"
"null","<div class=""feedback"">⭕ 꽝 (감점 없음)</div>","null","html-keyboard-response","110","51985","0.0-110.0","LuckyBox_RN_to_RP","600","150","ArrowLeft","ArrowRight","0.7","0.3","2025-10-04T12:10:53.561Z","feedback","36","0","","","","","","","",""
"null","<div class=""center small"" style=""margin-top:16vh;"">잠시만요…</div>","null","html-keyboard-response","111","52387","0.0-111.0","LuckyBox_RN_to_RP","600","150","ArrowLeft","ArrowRight","0.7","0.3","2025-10-04T12:10:53.561Z","iti","36","0","","","","","","","",""
"125","
        <div class=""boxes"">
          <div>
            <div class=""box"">L</div>
            <div class=""label"">왼쪽 상자</div>
          </div>
          <div>
            <div class=""box"">R</div>
            <div class=""label"">오른쪽 상자</div>
          </div>
        </div>
        <div class=""keys"">키보드 <b>←</b> = 왼쪽 / <b>→</b> = 오른쪽</div>
      ","arrowright","html-keyboard-response","112","52513","0.0-112.0","LuckyBox_RN_to_RP","600","150","ArrowLeft","ArrowRight","0.7","0.3","2025-10-04T12:10:53.561Z","choice","37","0","","0","0.7","0.3","2025-10-04T12:11:46.093Z","arrowright","0","9"
"null","<div class=""feedback"">⭕ 꽝 (감점 없음)</div>","null","html-keyboard-response","113","53215","0.0-113.0","LuckyBox_RN_to_RP","600","150","ArrowLeft","ArrowRight","0.7","0.3","2025-10-04T12:10:53.561Z","feedback","37","0","","","","","","","",""
"null","<div class=""center small"" style=""margin-top:16vh;"">잠시만요…</div>","null","html-keyboard-response","114","53618","0.0-114.0","LuckyBox_RN_to_RP","600","150","ArrowLeft","ArrowRight","0.7","0.3","2025-10-04T12:10:53.561Z","iti","37","0","","","","","","","",""
"245","
        <div class=""boxes"">
          <div>
            <div class=""box"">L</div>
            <div class=""label"">왼쪽 상자</div>
          </div>
          <div>
            <div class=""box"">R</div>
            <div class=""label"">오른쪽 상자</div>
          </div>
        </div>
        <div class=""keys"">키보드 <b>←</b> = 왼쪽 / <b>→</b> = 오른쪽</div>
      ","arrowright","html-keyboard-response","115","53865","0.0-115.0","LuckyBox_RN_to_RP","600","150","ArrowLeft","ArrowRight","0.7","0.3","2025-10-04T12:10:53.561Z","choice","38","0","","0","0.7","0.3","2025-10-04T12:11:47.445Z","arrowright","1","10"
"null","<div class=""feedback"">✅ 보상 +1</div>","null","html-keyboard-response","116","54568","0.0-116.0","LuckyBox_RN_to_RP","600","150","ArrowLeft","ArrowRight","0.7","0.3","2025-10-04T12:10:53.561Z","feedback","38","0","","","","","","","",""
"null","<div class=""center small"" style=""margin-top:16vh;"">잠시만요…</div>","null","html-keyboard-response","117","54971","0.0-117.0","LuckyBox_RN_to_RP","600","150","ArrowLeft","ArrowRight","0.7","0.3","2025-10-04T12:10:53.561Z","iti","38","0","","","","","","","",""
"274","
        <div class=""boxes"">
          <div>
            <div class=""box"">L</div>
            <div class=""label"">왼쪽 상자</div>
          </div>
          <div>
            <div class=""box"">R</div>
            <div class=""label"">오른쪽 상자</div>
          </div>
        </div>
        <div class=""keys"">키보드 <b>←</b> = 왼쪽 / <b>→</b> = 오른쪽</div>
      ","arrowright","html-keyboard-response","118","55246","0.0-118.0","LuckyBox_RN_to_RP","600","150","ArrowLeft","ArrowRight","0.7","0.3","2025-10-04T12:10:53.561Z","choice","39","0","","0","0.7","0.3","2025-10-04T12:11:48.826Z","arrowright","1","11"
"null","<div class=""feedback"">✅ 보상 +1</div>","null","html-keyboard-response","119","55948","0.0-119.0","LuckyBox_RN_to_RP","600","150","ArrowLeft","ArrowRight","0.7","0.3","2025-10-04T12:10:53.561Z","feedback","39","0","","","","","","","",""
"null","<div class=""center small"" style=""margin-top:16vh;"">잠시만요…</div>","null","html-keyboard-response","120","56350","0.0-120.0","LuckyBox_RN_to_RP","600","150","ArrowLeft","ArrowRight","0.7","0.3","2025-10-04T12:10:53.561Z","iti","39","0","","","","","","","",""
"242","
        <div class=""boxes"">
          <div>
            <div class=""box"">L</div>
            <div class=""label"">왼쪽 상자</div>
          </div>
          <div>
            <div class=""box"">R</div>
            <div class=""label"">오른쪽 상자</div>
          </div>
        </div>
        <div class=""keys"">키보드 <b>←</b> = 왼쪽 / <b>→</b> = 오른쪽</div>
      ","arrowright","html-keyboard-response","121","56594","0.0-121.0","LuckyBox_RN_to_RP","600","150","ArrowLeft","ArrowRight","0.7","0.3","2025-10-04T12:10:53.561Z","choice","40","0","","0","0.7","0.3","2025-10-04T12:11:50.174Z","arrowright","0","11"
"null","<div class=""feedback"">⭕ 꽝 (감점 없음)</div>","null","html-keyboard-response","122","57296","0.0-122.0","LuckyBox_RN_to_RP","600","150","ArrowLeft","ArrowRight","0.7","0.3","2025-10-04T12:10:53.561Z","feedback","40","0","","","","","","","",""
"null","<div class=""center small"" style=""margin-top:16vh;"">잠시만요…</div>","null","html-keyboard-response","123","57699","0.0-123.0","LuckyBox_RN_to_RP","600","150","ArrowLeft","ArrowRight","0.7","0.3","2025-10-04T12:10:53.561Z","iti","40","0","","","","","","","",""
"245","
        <div class=""boxes"">
          <div>
            <div class=""box"">L</div>
            <div class=""label"">왼쪽 상자</div>
          </div>
          <div>
            <div class=""box"">R</div>
            <div class=""label"">오른쪽 상자</div>
          </div>
        </div>
        <div class=""keys"">키보드 <b>←</b> = 왼쪽 / <b>→</b> = 오른쪽</div>
      ","arrowleft","html-keyboard-response","124","57945","0.0-124.0","LuckyBox_RN_to_RP","600","150","ArrowLeft","ArrowRight","0.7","0.3","2025-10-04T12:10:53.561Z","choice","41","0","","0","0.7","0.3","2025-10-04T12:11:51.525Z","arrowleft","0","11"
"null","<div class=""feedback"">⭕ 꽝 (감점 없음)</div>","null","html-keyboard-response","125","58647","0.0-125.0","LuckyBox_RN_to_RP","600","150","ArrowLeft","ArrowRight","0.7","0.3","2025-10-04T12:10:53.561Z","feedback","41","0","","","","","","","",""
"null","<div class=""center small"" style=""margin-top:16vh;"">잠시만요…</div>","null","html-keyboard-response","126","59050","0.0-126.0","LuckyBox_RN_to_RP","600","150","ArrowLeft","ArrowRight","0.7","0.3","2025-10-04T12:10:53.561Z","iti","41","0","","","","","","","",""
"108","
        <div class=""boxes"">
          <div>
            <div class=""box"">L</div>
            <div class=""label"">왼쪽 상자</div>
          </div>
          <div>
            <div class=""box"">R</div>
            <div class=""label"">오른쪽 상자</div>
          </div>
        </div>
        <div class=""keys"">키보드 <b>←</b> = 왼쪽 / <b>→</b> = 오른쪽</div>
      ","arrowright","html-keyboard-response","127","59159","0.0-127.0","LuckyBox_RN_to_RP","600","150","ArrowLeft","ArrowRight","0.7","0.3","2025-10-04T12:10:53.561Z","choice","42","0","","0","0.7","0.3","2025-10-04T12:11:52.739Z","arrowright","0","11"
"null","<div class=""feedback"">⭕ 꽝 (감점 없음)</div>","null","html-keyboard-response","128","59861","0.0-128.0","LuckyBox_RN_to_RP","600","150","ArrowLeft","ArrowRight","0.7","0.3","2025-10-04T12:10:53.561Z","feedback","42","0","","","","","","","",""
"null","<div class=""center small"" style=""margin-top:16vh;"">잠시만요…</div>","null","html-keyboard-response","129","60263","0.0-129.0","LuckyBox_RN_to_RP","600","150","ArrowLeft","ArrowRight","0.7","0.3","2025-10-04T12:10:53.561Z","iti","42","0","","","","","","","",""
"260","
        <div class=""boxes"">
          <div>
            <div class=""box"">L</div>
            <div class=""label"">왼쪽 상자</div>
          </div>
          <div>
            <div class=""box"">R</div>
            <div class=""label"">오른쪽 상자</div>
          </div>
        </div>
        <div class=""keys"">키보드 <b>←</b> = 왼쪽 / <b>→</b> = 오른쪽</div>
      ","arrowright","html-keyboard-response","130","60525","0.0-130.0","LuckyBox_RN_to_RP","600","150","ArrowLeft","ArrowRight","0.7","0.3","2025-10-04T12:10:53.561Z","choice","43","0","","0","0.7","0.3","2025-10-04T12:11:54.105Z","arrowright","1","12"
"null","<div class=""feedback"">✅ 보상 +1</div>","null","html-keyboard-response","131","61228","0.0-131.0","LuckyBox_RN_to_RP","600","150","ArrowLeft","ArrowRight","0.7","0.3","2025-10-04T12:10:53.561Z","feedback","43","0","","","","","","","",""
"null","<div class=""center small"" style=""margin-top:16vh;"">잠시만요…</div>","null","html-keyboard-response","132","61630","0.0-132.0","LuckyBox_RN_to_RP","600","150","ArrowLeft","ArrowRight","0.7","0.3","2025-10-04T12:10:53.561Z","iti","43","0","","","","","","","",""
"162","
        <div class=""boxes"">
          <div>
            <div class=""box"">L</div>
            <div class=""label"">왼쪽 상자</div>
          </div>
          <div>
            <div class=""box"">R</div>
            <div class=""label"">오른쪽 상자</div>
          </div>
        </div>
        <div class=""keys"">키보드 <b>←</b> = 왼쪽 / <b>→</b> = 오른쪽</div>
      ","arrowright","html-keyboard-response","133","61794","0.0-133.0","LuckyBox_RN_to_RP","600","150","ArrowLeft","ArrowRight","0.7","0.3","2025-10-04T12:10:53.561Z","choice","44","0","","0","0.7","0.3","2025-10-04T12:11:55.374Z","arrowright","1","13"
"null","<div class=""feedback"">✅ 보상 +1</div>","null","html-keyboard-response","134","62497","0.0-134.0","LuckyBox_RN_to_RP","600","150","ArrowLeft","ArrowRight","0.7","0.3","2025-10-04T12:10:53.561Z","feedback","44","0","","","","","","","",""
"null","<div class=""center small"" style=""margin-top:16vh;"">잠시만요…</div>","null","html-keyboard-response","135","62899","0.0-135.0","LuckyBox_RN_to_RP","600","150","ArrowLeft","ArrowRight","0.7","0.3","2025-10-04T12:10:53.561Z","iti","44","0","","","","","","","",""
"131","
        <div class=""boxes"">
          <div>
            <div class=""box"">L</div>
            <div class=""label"">왼쪽 상자</div>
          </div>
          <div>
            <div class=""box"">R</div>
            <div class=""label"">오른쪽 상자</div>
          </div>
        </div>
        <div class=""keys"">키보드 <b>←</b> = 왼쪽 / <b>→</b> = 오른쪽</div>
      ","arrowright","html-keyboard-response","136","63032","0.0-136.0","LuckyBox_RN_to_RP","600","150","ArrowLeft","ArrowRight","0.7","0.3","2025-10-04T12:10:53.561Z","choice","45","0","","0","0.7","0.3","2025-10-04T12:11:56.612Z","arrowright","0","13"
"null","<div class=""feedback"">⭕ 꽝 (감점 없음)</div>","null","html-keyboard-response","137","63734","0.0-137.0","LuckyBox_RN_to_RP","600","150","ArrowLeft","ArrowRight","0.7","0.3","2025-10-04T12:10:53.561Z","feedback","45","0","","","","","","","",""
"null","<div class=""center small"" style=""margin-top:16vh;"">잠시만요…</div>","null","html-keyboard-response","138","64137","0.0-138.0","LuckyBox_RN_to_RP","600","150","ArrowLeft","ArrowRight","0.7","0.3","2025-10-04T12:10:53.561Z","iti","45","0","","","","","","","",""
"234","
        <div class=""boxes"">
          <div>
            <div class=""box"">L</div>
            <div class=""label"">왼쪽 상자</div>
          </div>
          <div>
            <div class=""box"">R</div>
            <div class=""label"">오른쪽 상자</div>
          </div>
        </div>
        <div class=""keys"">키보드 <b>←</b> = 왼쪽 / <b>→</b> = 오른쪽</div>
      ","arrowright","html-keyboard-response","139","64373","0.0-139.0","LuckyBox_RN_to_RP","600","150","ArrowLeft","ArrowRight","0.7","0.3","2025-10-04T12:10:53.561Z","choice","46","0","","0","0.7","0.3","2025-10-04T12:11:57.953Z","arrowright","0","13"
"null","<div class=""feedback"">⭕ 꽝 (감점 없음)</div>","null","html-keyboard-response","140","65075","0.0-140.0","LuckyBox_RN_to_RP","600","150","ArrowLeft","ArrowRight","0.7","0.3","2025-10-04T12:10:53.561Z","feedback","46","0","","","","","","","",""
"null","<div class=""center small"" style=""margin-top:16vh;"">잠시만요…</div>","null","html-keyboard-response","141","65477","0.0-141.0","LuckyBox_RN_to_RP","600","150","ArrowLeft","ArrowRight","0.7","0.3","2025-10-04T12:10:53.561Z","iti","46","0","","","","","","","",""
"569","
        <div class=""boxes"">
          <div>
            <div class=""box"">L</div>
            <div class=""label"">왼쪽 상자</div>
          </div>
          <div>
            <div class=""box"">R</div>
            <div class=""label"">오른쪽 상자</div>
          </div>
        </div>
        <div class=""keys"">키보드 <b>←</b> = 왼쪽 / <b>→</b> = 오른쪽</div>
      ","arrowleft","html-keyboard-response","142","66048","0.0-142.0","LuckyBox_RN_to_RP","600","150","ArrowLeft","ArrowRight","0.7","0.3","2025-10-04T12:10:53.561Z","choice","47","0","","0","0.7","0.3","2025-10-04T12:11:59.628Z","arrowleft","1","14"
"null","<div class=""feedback"">✅ 보상 +1</div>","null","html-keyboard-response","143","66750","0.0-143.0","LuckyBox_RN_to_RP","600","150","ArrowLeft","ArrowRight","0.7","0.3","2025-10-04T12:10:53.561Z","feedback","47","0","","","","","","","",""
"null","<div class=""center small"" style=""margin-top:16vh;"">잠시만요…</div>","null","html-keyboard-response","144","67152","0.0-144.0","LuckyBox_RN_to_RP","600","150","ArrowLeft","ArrowRight","0.7","0.3","2025-10-04T12:10:53.561Z","iti","47","0","","","","","","","",""
"325","
        <div class=""boxes"">
          <div>
            <div class=""box"">L</div>
            <div class=""label"">왼쪽 상자</div>
          </div>
          <div>
            <div class=""box"">R</div>
            <div class=""label"">오른쪽 상자</div>
          </div>
        </div>
        <div class=""keys"">키보드 <b>←</b> = 왼쪽 / <b>→</b> = 오른쪽</div>
      ","arrowleft","html-keyboard-response","145","67478","0.0-145.0","LuckyBox_RN_to_RP","600","150","ArrowLeft","ArrowRight","0.7","0.3","2025-10-04T12:10:53.561Z","choice","48","0","","0","0.7","0.3","2025-10-04T12:12:01.058Z","arrowleft","1","15"
"null","<div class=""feedback"">✅ 보상 +1</div>","null","html-keyboard-response","146","68180","0.0-146.0","LuckyBox_RN_to_RP","600","150","ArrowLeft","ArrowRight","0.7","0.3","2025-10-04T12:10:53.561Z","feedback","48","0","","","","","","","",""
"null","<div class=""center small"" style=""margin-top:16vh;"">잠시만요…</div>","null","html-keyboard-response","147","68583","0.0-147.0","LuckyBox_RN_to_RP","600","150","ArrowLeft","ArrowRight","0.7","0.3","2025-10-04T12:10:53.561Z","iti","48","0","","","","","","","",""
"301","
        <div class=""boxes"">
          <div>
            <div class=""box"">L</div>
            <div class=""label"">왼쪽 상자</div>
          </div>
          <div>
            <div class=""box"">R</div>
            <div class=""label"">오른쪽 상자</div>
          </div>
        </div>
        <div class=""keys"">키보드 <b>←</b> = 왼쪽 / <b>→</b> = 오른쪽</div>
      ","arrowleft","html-keyboard-response","148","68885","0.0-148.0","LuckyBox_RN_to_RP","600","150","ArrowLeft","ArrowRight","0.7","0.3","2025-10-04T12:10:53.561Z","choice","49","0","","0","0.7","0.3","2025-10-04T12:12:02.465Z","arrowleft","0","15"
"null","<div class=""feedback"">⭕ 꽝 (감점 없음)</div>","null","html-keyboard-response","149","69587","0.0-149.0","LuckyBox_RN_to_RP","600","150","ArrowLeft","ArrowRight","0.7","0.3","2025-10-04T12:10:53.561Z","feedback","49","0","","","","","","","",""
"null","<div class=""center small"" style=""margin-top:16vh;"">잠시만요…</div>","null","html-keyboard-response","150","69990","0.0-150.0","LuckyBox_RN_to_RP","600","150","ArrowLeft","ArrowRight","0.7","0.3","2025-10-04T12:10:53.561Z","iti","49","0","","","","","","","",""
"158","
        <div class=""boxes"">
          <div>
            <div class=""box"">L</div>
            <div class=""label"">왼쪽 상자</div>
          </div>
          <div>
            <div class=""box"">R</div>
            <div class=""label"">오른쪽 상자</div>
          </div>
        </div>
        <div class=""keys"">키보드 <b>←</b> = 왼쪽 / <b>→</b> = 오른쪽</div>
      ","arrowleft","html-keyboard-response","151","70149","0.0-151.0","LuckyBox_RN_to_RP","600","150","ArrowLeft","ArrowRight","0.7","0.3","2025-10-04T12:10:53.561Z","choice","50","0","","0","0.7","0.3","2025-10-04T12:12:03.729Z","arrowleft","0","15"
"null","<div class=""feedback"">⭕ 꽝 (감점 없음)</div>","null","html-keyboard-response","152","70852","0.0-152.0","LuckyBox_RN_to_RP","600","150","ArrowLeft","ArrowRight","0.7","0.3","2025-10-04T12:10:53.561Z","feedback","50","0","","","","","","","",""
"null","<div class=""center small"" style=""margin-top:16vh;"">잠시만요…</div>","null","html-keyboard-response","153","71254","0.0-153.0","LuckyBox_RN_to_RP","600","150","ArrowLeft","ArrowRight","0.7","0.3","2025-10-04T12:10:53.561Z","iti","50","0","","","","","","","",""
"257","
        <div class=""boxes"">
          <div>
            <div class=""box"">L</div>
            <div class=""label"">왼쪽 상자</div>
          </div>
          <div>
            <div class=""box"">R</div>
            <div class=""label"">오른쪽 상자</div>
          </div>
        </div>
        <div class=""keys"">키보드 <b>←</b> = 왼쪽 / <b>→</b> = 오른쪽</div>
      ","arrowright","html-keyboard-response","154","71513","0.0-154.0","LuckyBox_RN_to_RP","600","150","ArrowLeft","ArrowRight","0.7","0.3","2025-10-04T12:10:53.561Z","choice","51","0","","0","0.7","0.3","2025-10-04T12:12:05.093Z","arrowright","0","15"
"null","<div class=""feedback"">⭕ 꽝 (감점 없음)</div>","null","html-keyboard-response","155","72215","0.0-155.0","LuckyBox_RN_to_RP","600","150","ArrowLeft","ArrowRight","0.7","0.3","2025-10-04T12:10:53.561Z","feedback","51","0","","","","","","","",""
"null","<div class=""center small"" style=""margin-top:16vh;"">잠시만요…</div>","null","html-keyboard-response","156","72618","0.0-156.0","LuckyBox_RN_to_RP","600","150","ArrowLeft","ArrowRight","0.7","0.3","2025-10-04T12:10:53.561Z","iti","51","0","","","","","","","",""
"126","
        <div class=""boxes"">
          <div>
            <div class=""box"">L</div>
            <div class=""label"">왼쪽 상자</div>
          </div>
          <div>
            <div class=""box"">R</div>
            <div class=""label"">오른쪽 상자</div>
          </div>
        </div>
        <div class=""keys"">키보드 <b>←</b> = 왼쪽 / <b>→</b> = 오른쪽</div>
      ","arrowright","html-keyboard-response","157","72746","0.0-157.0","LuckyBox_RN_to_RP","600","150","ArrowLeft","ArrowRight","0.7","0.3","2025-10-04T12:10:53.561Z","choice","52","0","","0","0.7","0.3","2025-10-04T12:12:06.326Z","arrowright","1","16"
"null","<div class=""feedback"">✅ 보상 +1</div>","null","html-keyboard-response","158","73448","0.0-158.0","LuckyBox_RN_to_RP","600","150","ArrowLeft","ArrowRight","0.7","0.3","2025-10-04T12:10:53.561Z","feedback","52","0","","","","","","","",""
"null","<div class=""center small"" style=""margin-top:16vh;"">잠시만요…</div>","null","html-keyboard-response","159","73851","0.0-159.0","LuckyBox_RN_to_RP","600","150","ArrowLeft","ArrowRight","0.7","0.3","2025-10-04T12:10:53.561Z","iti","52","0","","","","","","","",""
"503","
        <div class=""boxes"">
          <div>
            <div class=""box"">L</div>
            <div class=""label"">왼쪽 상자</div>
          </div>
          <div>
            <div class=""box"">R</div>
            <div class=""label"">오른쪽 상자</div>
          </div>
        </div>
        <div class=""keys"">키보드 <b>←</b> = 왼쪽 / <b>→</b> = 오른쪽</div>
      ","arrowleft","html-keyboard-response","160","74356","0.0-160.0","LuckyBox_RN_to_RP","600","150","ArrowLeft","ArrowRight","0.7","0.3","2025-10-04T12:10:53.561Z","choice","53","0","","0","0.7","0.3","2025-10-04T12:12:07.936Z","arrowleft","0","16"
"null","<div class=""feedback"">⭕ 꽝 (감점 없음)</div>","null","html-keyboard-response","161","75058","0.0-161.0","LuckyBox_RN_to_RP","600","150","ArrowLeft","ArrowRight","0.7","0.3","2025-10-04T12:10:53.561Z","feedback","53","0","","","","","","","",""
"null","<div class=""center small"" style=""margin-top:16vh;"">잠시만요…</div>","null","html-keyboard-response","162","75460","0.0-162.0","LuckyBox_RN_to_RP","600","150","ArrowLeft","ArrowRight","0.7","0.3","2025-10-04T12:10:53.561Z","iti","53","0","","","","","","","",""
"111","
        <div class=""boxes"">
          <div>
            <div class=""box"">L</div>
            <div class=""label"">왼쪽 상자</div>
          </div>
          <div>
            <div class=""box"">R</div>
            <div class=""label"">오른쪽 상자</div>
          </div>
        </div>
        <div class=""keys"">키보드 <b>←</b> = 왼쪽 / <b>→</b> = 오른쪽</div>
      ","arrowright","html-keyboard-response","163","75572","0.0-163.0","LuckyBox_RN_to_RP","600","150","ArrowLeft","ArrowRight","0.7","0.3","2025-10-04T12:10:53.561Z","choice","54","0","","0","0.7","0.3","2025-10-04T12:12:09.152Z","arrowright","0","16"
"null","<div class=""feedback"">⭕ 꽝 (감점 없음)</div>","null","html-keyboard-response","164","76275","0.0-164.0","LuckyBox_RN_to_RP","600","150","ArrowLeft","ArrowRight","0.7","0.3","2025-10-04T12:10:53.561Z","feedback","54","0","","","","","","","",""
"null","<div class=""center small"" style=""margin-top:16vh;"">잠시만요…</div>","null","html-keyboard-response","165","76677","0.0-165.0","LuckyBox_RN_to_RP","600","150","ArrowLeft","ArrowRight","0.7","0.3","2025-10-04T12:10:53.561Z","iti","54","0","","","","","","","",""
"133","
        <div class=""boxes"">
          <div>
            <div class=""box"">L</div>
            <div class=""label"">왼쪽 상자</div>
          </div>
          <div>
            <div class=""box"">R</div>
            <div class=""label"">오른쪽 상자</div>
          </div>
        </div>
        <div class=""keys"">키보드 <b>←</b> = 왼쪽 / <b>→</b> = 오른쪽</div>
      ","arrowright","html-keyboard-response","166","76812","0.0-166.0","LuckyBox_RN_to_RP","600","150","ArrowLeft","ArrowRight","0.7","0.3","2025-10-04T12:10:53.561Z","choice","55","0","","0","0.7","0.3","2025-10-04T12:12:10.392Z","arrowright","0","16"
"null","<div class=""feedback"">⭕ 꽝 (감점 없음)</div>","null","html-keyboard-response","167","77513","0.0-167.0","LuckyBox_RN_to_RP","600","150","ArrowLeft","ArrowRight","0.7","0.3","2025-10-04T12:10:53.561Z","feedback","55","0","","","","","","","",""
"null","<div class=""center small"" style=""margin-top:16vh;"">잠시만요…</div>","null","html-keyboard-response","168","77915","0.0-168.0","LuckyBox_RN_to_RP","600","150","ArrowLeft","ArrowRight","0.7","0.3","2025-10-04T12:10:53.561Z","iti","55","0","","","","","","","",""
"214","
        <div class=""boxes"">
          <div>
            <div class=""box"">L</div>
            <div class=""label"">왼쪽 상자</div>
          </div>
          <div>
            <div class=""box"">R</div>
            <div class=""label"">오른쪽 상자</div>
          </div>
        </div>
        <div class=""keys"">키보드 <b>←</b> = 왼쪽 / <b>→</b> = 오른쪽</div>
      ","arrowright","html-keyboard-response","169","78131","0.0-169.0","LuckyBox_RN_to_RP","600","150","ArrowLeft","ArrowRight","0.7","0.3","2025-10-04T12:10:53.561Z","choice","56","0","","0","0.7","0.3","2025-10-04T12:12:11.711Z","arrowright","0","16"
"null","<div class=""feedback"">⭕ 꽝 (감점 없음)</div>","null","html-keyboard-response","170","78833","0.0-170.0","LuckyBox_RN_to_RP","600","150","ArrowLeft","ArrowRight","0.7","0.3","2025-10-04T12:10:53.561Z","feedback","56","0","","","","","","","",""
"null","<div class=""center small"" style=""margin-top:16vh;"">잠시만요…</div>","null","html-keyboard-response","171","79236","0.0-171.0","LuckyBox_RN_to_RP","600","150","ArrowLeft","ArrowRight","0.7","0.3","2025-10-04T12:10:53.561Z","iti","56","0","","","","","","","",""
"121","
        <div class=""boxes"">
          <div>
            <div class=""box"">L</div>
            <div class=""label"">왼쪽 상자</div>
          </div>
          <div>
            <div class=""box"">R</div>
            <div class=""label"">오른쪽 상자</div>
          </div>
        </div>
        <div class=""keys"">키보드 <b>←</b> = 왼쪽 / <b>→</b> = 오른쪽</div>
      ","arrowleft","html-keyboard-response","172","79358","0.0-172.0","LuckyBox_RN_to_RP","600","150","ArrowLeft","ArrowRight","0.7","0.3","2025-10-04T12:10:53.561Z","choice","57","0","","0","0.7","0.3","2025-10-04T12:12:12.938Z","arrowleft","0","16"
"null","<div class=""feedback"">⭕ 꽝 (감점 없음)</div>","null","html-keyboard-response","173","80060","0.0-173.0","LuckyBox_RN_to_RP","600","150","ArrowLeft","ArrowRight","0.7","0.3","2025-10-04T12:10:53.561Z","feedback","57","0","","","","","","","",""
"null","<div class=""center small"" style=""margin-top:16vh;"">잠시만요…</div>","null","html-keyboard-response","174","80463","0.0-174.0","LuckyBox_RN_to_RP","600","150","ArrowLeft","ArrowRight","0.7","0.3","2025-10-04T12:10:53.561Z","iti","57","0","","","","","","","",""
"111","
        <div class=""boxes"">
          <div>
            <div class=""box"">L</div>
            <div class=""label"">왼쪽 상자</div>
          </div>
          <div>
            <div class=""box"">R</div>
            <div class=""label"">오른쪽 상자</div>
          </div>
        </div>
        <div class=""keys"">키보드 <b>←</b> = 왼쪽 / <b>→</b> = 오른쪽</div>
      ","arrowleft","html-keyboard-response","175","80575","0.0-175.0","LuckyBox_RN_to_RP","600","150","ArrowLeft","ArrowRight","0.7","0.3","2025-10-04T12:10:53.561Z","choice","58","0","","0","0.7","0.3","2025-10-04T12:12:14.155Z","arrowleft","1","17"
"null","<div class=""feedback"">✅ 보상 +1</div>","null","html-keyboard-response","176","81277","0.0-176.0","LuckyBox_RN_to_RP","600","150","ArrowLeft","ArrowRight","0.7","0.3","2025-10-04T12:10:53.561Z","feedback","58","0","","","","","","","",""
"null","<div class=""center small"" style=""margin-top:16vh;"">잠시만요…</div>","null","html-keyboard-response","177","81680","0.0-177.0","LuckyBox_RN_to_RP","600","150","ArrowLeft","ArrowRight","0.7","0.3","2025-10-04T12:10:53.561Z","iti","58","0","","","","","","","",""
"155","
        <div class=""boxes"">
          <div>
            <div class=""box"">L</div>
            <div class=""label"">왼쪽 상자</div>
          </div>
          <div>
            <div class=""box"">R</div>
            <div class=""label"">오른쪽 상자</div>
          </div>
        </div>
        <div class=""keys"">키보드 <b>←</b> = 왼쪽 / <b>→</b> = 오른쪽</div>
      ","arrowleft","html-keyboard-response","178","81837","0.0-178.0","LuckyBox_RN_to_RP","600","150","ArrowLeft","ArrowRight","0.7","0.3","2025-10-04T12:10:53.561Z","choice","59","0","","0","0.7","0.3","2025-10-04T12:12:15.417Z","arrowleft","0","17"
"null","<div class=""feedback"">⭕ 꽝 (감점 없음)</div>","null","html-keyboard-response","179","82539","0.0-179.0","LuckyBox_RN_to_RP","600","150","ArrowLeft","ArrowRight","0.7","0.3","2025-10-04T12:10:53.561Z","feedback","59","0","","","","","","","",""
"null","<div class=""center small"" style=""margin-top:16vh;"">잠시만요…</div>","null","html-keyboard-response","180","82941","0.0-180.0","LuckyBox_RN_to_RP","600","150","ArrowLeft","ArrowRight","0.7","0.3","2025-10-04T12:10:53.561Z","iti","59","0","","","","","","","",""
"174","
        <div class=""boxes"">
          <div>
            <div class=""box"">L</div>
            <div class=""label"">왼쪽 상자</div>
          </div>
          <div>
            <div class=""box"">R</div>
            <div class=""label"">오른쪽 상자</div>
          </div>
        </div>
        <div class=""keys"">키보드 <b>←</b> = 왼쪽 / <b>→</b> = 오른쪽</div>
      ","arrowleft","html-keyboard-response","181","83117","0.0-181.0","LuckyBox_RN_to_RP","600","150","ArrowLeft","ArrowRight","0.7","0.3","2025-10-04T12:10:53.561Z","choice","60","0","","0","0.7","0.3","2025-10-04T12:12:16.697Z","arrowleft","1","18"
"null","<div class=""feedback"">✅ 보상 +1</div>","null","html-keyboard-response","182","83818","0.0-182.0","LuckyBox_RN_to_RP","600","150","ArrowLeft","ArrowRight","0.7","0.3","2025-10-04T12:10:53.561Z","feedback","60","0","","","","","","","",""
"null","<div class=""center small"" style=""margin-top:16vh;"">잠시만요…</div>","null","html-keyboard-response","183","84220","0.0-183.0","LuckyBox_RN_to_RP","600","150","ArrowLeft","ArrowRight","0.7","0.3","2025-10-04T12:10:53.561Z","iti","60","0","","","","","","","",""
"151","
        <div class=""boxes"">
          <div>
            <div class=""box"">L</div>
            <div class=""label"">왼쪽 상자</div>
          </div>
          <div>
            <div class=""box"">R</div>
            <div class=""label"">오른쪽 상자</div>
          </div>
        </div>
        <div class=""keys"">키보드 <b>←</b> = 왼쪽 / <b>→</b> = 오른쪽</div>
      ","arrowleft","html-keyboard-response","184","84373","0.0-184.0","LuckyBox_RN_to_RP","600","150","ArrowLeft","ArrowRight","0.7","0.3","2025-10-04T12:10:53.561Z","choice","61","0","","0","0.7","0.3","2025-10-04T12:12:17.953Z","arrowleft","0","18"
"null","<div class=""feedback"">⭕ 꽝 (감점 없음)</div>","null","html-keyboard-response","185","85075","0.0-185.0","LuckyBox_RN_to_RP","600","150","ArrowLeft","ArrowRight","0.7","0.3","2025-10-04T12:10:53.561Z","feedback","61","0","","","","","","","",""
"null","<div class=""center small"" style=""margin-top:16vh;"">잠시만요…</div>","null","html-keyboard-response","186","85478","0.0-186.0","LuckyBox_RN_to_RP","600","150","ArrowLeft","ArrowRight","0.7","0.3","2025-10-04T12:10:53.561Z","iti","61","0","","","","","","","",""
"159","
        <div class=""boxes"">
          <div>
            <div class=""box"">L</div>
            <div class=""label"">왼쪽 상자</div>
          </div>
          <div>
            <div class=""box"">R</div>
            <div class=""label"">오른쪽 상자</div>
          </div>
        </div>
        <div class=""keys"">키보드 <b>←</b> = 왼쪽 / <b>→</b> = 오른쪽</div>
      ","arrowleft","html-keyboard-response","187","85638","0.0-187.0","LuckyBox_RN_to_RP","600","150","ArrowLeft","ArrowRight","0.7","0.3","2025-10-04T12:10:53.561Z","choice","62","0","","0","0.7","0.3","2025-10-04T12:12:19.218Z","arrowleft","1","19"
"null","<div class=""feedback"">✅ 보상 +1</div>","null","html-keyboard-response","188","86341","0.0-188.0","LuckyBox_RN_to_RP","600","150","ArrowLeft","ArrowRight","0.7","0.3","2025-10-04T12:10:53.561Z","feedback","62","0","","","","","","","",""
"null","<div class=""center small"" style=""margin-top:16vh;"">잠시만요…</div>","null","html-keyboard-response","189","86744","0.0-189.0","LuckyBox_RN_to_RP","600","150","ArrowLeft","ArrowRight","0.7","0.3","2025-10-04T12:10:53.561Z","iti","62","0","","","","","","","",""
"152","
        <div class=""boxes"">
          <div>
            <div class=""box"">L</div>
            <div class=""label"">왼쪽 상자</div>
          </div>
          <div>
            <div class=""box"">R</div>
            <div class=""label"">오른쪽 상자</div>
          </div>
        </div>
        <div class=""keys"">키보드 <b>←</b> = 왼쪽 / <b>→</b> = 오른쪽</div>
      ","arrowleft","html-keyboard-response","190","86897","0.0-190.0","LuckyBox_RN_to_RP","600","150","ArrowLeft","ArrowRight","0.7","0.3","2025-10-04T12:10:53.561Z","choice","63","0","","0","0.7","0.3","2025-10-04T12:12:20.477Z","arrowleft","0","19"
"null","<div class=""feedback"">⭕ 꽝 (감점 없음)</div>","null","html-keyboard-response","191","87600","0.0-191.0","LuckyBox_RN_to_RP","600","150","ArrowLeft","ArrowRight","0.7","0.3","2025-10-04T12:10:53.561Z","feedback","63","0","","","","","","","",""
"null","<div class=""center small"" style=""margin-top:16vh;"">잠시만요…</div>","null","html-keyboard-response","192","88002","0.0-192.0","LuckyBox_RN_to_RP","600","150","ArrowLeft","ArrowRight","0.7","0.3","2025-10-04T12:10:53.561Z","iti","63","0","","","","","","","",""
"235","
        <div class=""boxes"">
          <div>
            <div class=""box"">L</div>
            <div class=""label"">왼쪽 상자</div>
          </div>
          <div>
            <div class=""box"">R</div>
            <div class=""label"">오른쪽 상자</div>
          </div>
        </div>
        <div class=""keys"">키보드 <b>←</b> = 왼쪽 / <b>→</b> = 오른쪽</div>
      ","arrowleft","html-keyboard-response","193","88240","0.0-193.0","LuckyBox_RN_to_RP","600","150","ArrowLeft","ArrowRight","0.7","0.3","2025-10-04T12:10:53.561Z","choice","64","0","","0","0.7","0.3","2025-10-04T12:12:21.820Z","arrowleft","1","20"
"null","<div class=""feedback"">✅ 보상 +1</div>","null","html-keyboard-response","194","88942","0.0-194.0","LuckyBox_RN_to_RP","600","150","ArrowLeft","ArrowRight","0.7","0.3","2025-10-04T12:10:53.561Z","feedback","64","0","","","","","","","",""
"null","<div class=""center small"" style=""margin-top:16vh;"">잠시만요…</div>","null","html-keyboard-response","195","89344","0.0-195.0","LuckyBox_RN_to_RP","600","150","ArrowLeft","ArrowRight","0.7","0.3","2025-10-04T12:10:53.561Z","iti","64","0","","","","","","","",""
"256","
        <div class=""boxes"">
          <div>
            <div class=""box"">L</div>
            <div class=""label"">왼쪽 상자</div>
          </div>
          <div>
            <div class=""box"">R</div>
            <div class=""label"">오른쪽 상자</div>
          </div>
        </div>
        <div class=""keys"">키보드 <b>←</b> = 왼쪽 / <b>→</b> = 오른쪽</div>
      ","arrowleft","html-keyboard-response","196","89602","0.0-196.0","LuckyBox_RN_to_RP","600","150","ArrowLeft","ArrowRight","0.7","0.3","2025-10-04T12:10:53.561Z","choice","65","0","","0","0.7","0.3","2025-10-04T12:12:23.182Z","arrowleft","0","20"
"null","<div class=""feedback"">⭕ 꽝 (감점 없음)</div>","null","html-keyboard-response","197","90304","0.0-197.0","LuckyBox_RN_to_RP","600","150","ArrowLeft","ArrowRight","0.7","0.3","2025-10-04T12:10:53.561Z","feedback","65","0","","","","","","","",""
"null","<div class=""center small"" style=""margin-top:16vh;"">잠시만요…</div>","null","html-keyboard-response","198","90706","0.0-198.0","LuckyBox_RN_to_RP","600","150","ArrowLeft","ArrowRight","0.7","0.3","2025-10-04T12:10:53.561Z","iti","65","0","","","","","","","",""
"343","
        <div class=""boxes"">
          <div>
            <div class=""box"">L</div>
            <div class=""label"">왼쪽 상자</div>
          </div>
          <div>
            <div class=""box"">R</div>
            <div class=""label"">오른쪽 상자</div>
          </div>
        </div>
        <div class=""keys"">키보드 <b>←</b> = 왼쪽 / <b>→</b> = 오른쪽</div>
      ","arrowleft","html-keyboard-response","199","91051","0.0-199.0","LuckyBox_RN_to_RP","600","150","ArrowLeft","ArrowRight","0.7","0.3","2025-10-04T12:10:53.561Z","choice","66","0","","0","0.7","0.3","2025-10-04T12:12:24.631Z","arrowleft","0","20"
"null","<div class=""feedback"">⭕ 꽝 (감점 없음)</div>","null","html-keyboard-response","200","91753","0.0-200.0","LuckyBox_RN_to_RP","600","150","ArrowLeft","ArrowRight","0.7","0.3","2025-10-04T12:10:53.561Z","feedback","66","0","","","","","","","",""
"null","<div class=""center small"" style=""margin-top:16vh;"">잠시만요…</div>","null","html-keyboard-response","201","92155","0.0-201.0","LuckyBox_RN_to_RP","600","150","ArrowLeft","ArrowRight","0.7","0.3","2025-10-04T12:10:53.561Z","iti","66","0","","","","","","","",""
"188","
        <div class=""boxes"">
          <div>
            <div class=""box"">L</div>
            <div class=""label"">왼쪽 상자</div>
          </div>
          <div>
            <div class=""box"">R</div>
            <div class=""label"">오른쪽 상자</div>
          </div>
        </div>
        <div class=""keys"">키보드 <b>←</b> = 왼쪽 / <b>→</b> = 오른쪽</div>
      ","arrowright","html-keyboard-response","202","92345","0.0-202.0","LuckyBox_RN_to_RP","600","150","ArrowLeft","ArrowRight","0.7","0.3","2025-10-04T12:10:53.561Z","choice","67","0","","0","0.7","0.3","2025-10-04T12:12:25.925Z","arrowright","0","20"
"null","<div class=""feedback"">⭕ 꽝 (감점 없음)</div>","null","html-keyboard-response","203","93048","0.0-203.0","LuckyBox_RN_to_RP","600","150","ArrowLeft","ArrowRight","0.7","0.3","2025-10-04T12:10:53.561Z","feedback","67","0","","","","","","","",""
"null","<div class=""center small"" style=""margin-top:16vh;"">잠시만요…</div>","null","html-keyboard-response","204","93451","0.0-204.0","LuckyBox_RN_to_RP","600","150","ArrowLeft","ArrowRight","0.7","0.3","2025-10-04T12:10:53.561Z","iti","67","0","","","","","","","",""
"102","
        <div class=""boxes"">
          <div>
            <div class=""box"">L</div>
            <div class=""label"">왼쪽 상자</div>
          </div>
          <div>
            <div class=""box"">R</div>
            <div class=""label"">오른쪽 상자</div>
          </div>
        </div>
        <div class=""keys"">키보드 <b>←</b> = 왼쪽 / <b>→</b> = 오른쪽</div>
      ","arrowright","html-keyboard-response","205","93554","0.0-205.0","LuckyBox_RN_to_RP","600","150","ArrowLeft","ArrowRight","0.7","0.3","2025-10-04T12:10:53.561Z","choice","68","0","","0","0.7","0.3","2025-10-04T12:12:27.134Z","arrowright","0","20"
"null","<div class=""feedback"">⭕ 꽝 (감점 없음)</div>","null","html-keyboard-response","206","94256","0.0-206.0","LuckyBox_RN_to_RP","600","150","ArrowLeft","ArrowRight","0.7","0.3","2025-10-04T12:10:53.561Z","feedback","68","0","","","","","","","",""
"null","<div class=""center small"" style=""margin-top:16vh;"">잠시만요…</div>","null","html-keyboard-response","207","94658","0.0-207.0","LuckyBox_RN_to_RP","600","150","ArrowLeft","ArrowRight","0.7","0.3","2025-10-04T12:10:53.561Z","iti","68","0","","","","","","","",""
"243","
        <div class=""boxes"">
          <div>
            <div class=""box"">L</div>
            <div class=""label"">왼쪽 상자</div>
          </div>
          <div>
            <div class=""box"">R</div>
            <div class=""label"">오른쪽 상자</div>
          </div>
        </div>
        <div class=""keys"">키보드 <b>←</b> = 왼쪽 / <b>→</b> = 오른쪽</div>
      ","arrowleft","html-keyboard-response","208","94903","0.0-208.0","LuckyBox_RN_to_RP","600","150","ArrowLeft","ArrowRight","0.7","0.3","2025-10-04T12:10:53.561Z","choice","69","0","","0","0.7","0.3","2025-10-04T12:12:28.483Z","arrowleft","1","21"
"null","<div class=""feedback"">✅ 보상 +1</div>","null","html-keyboard-response","209","95605","0.0-209.0","LuckyBox_RN_to_RP","600","150","ArrowLeft","ArrowRight","0.7","0.3","2025-10-04T12:10:53.561Z","feedback","69","0","","","","","","","",""
"null","<div class=""center small"" style=""margin-top:16vh;"">잠시만요…</div>","null","html-keyboard-response","210","96007","0.0-210.0","LuckyBox_RN_to_RP","600","150","ArrowLeft","ArrowRight","0.7","0.3","2025-10-04T12:10:53.561Z","iti","69","0","","","","","","","",""
"174","
        <div class=""boxes"">
          <div>
            <div class=""box"">L</div>
            <div class=""label"">왼쪽 상자</div>
          </div>
          <div>
            <div class=""box"">R</div>
            <div class=""label"">오른쪽 상자</div>
          </div>
        </div>
        <div class=""keys"">키보드 <b>←</b> = 왼쪽 / <b>→</b> = 오른쪽</div>
      ","arrowleft","html-keyboard-response","211","96183","0.0-211.0","LuckyBox_RN_to_RP","600","150","ArrowLeft","ArrowRight","0.7","0.3","2025-10-04T12:10:53.561Z","choice","70","0","","0","0.7","0.3","2025-10-04T12:12:29.763Z","arrowleft","0","21"
"null","<div class=""feedback"">⭕ 꽝 (감점 없음)</div>","null","html-keyboard-response","212","96886","0.0-212.0","LuckyBox_RN_to_RP","600","150","ArrowLeft","ArrowRight","0.7","0.3","2025-10-04T12:10:53.561Z","feedback","70","0","","","","","","","",""
"null","<div class=""center small"" style=""margin-top:16vh;"">잠시만요…</div>","null","html-keyboard-response","213","97288","0.0-213.0","LuckyBox_RN_to_RP","600","150","ArrowLeft","ArrowRight","0.7","0.3","2025-10-04T12:10:53.561Z","iti","70","0","","","","","","","",""
"74","
        <div class=""boxes"">
          <div>
            <div class=""box"">L</div>
            <div class=""label"">왼쪽 상자</div>
          </div>
          <div>
            <div class=""box"">R</div>
            <div class=""label"">오른쪽 상자</div>
          </div>
        </div>
        <div class=""keys"">키보드 <b>←</b> = 왼쪽 / <b>→</b> = 오른쪽</div>
      ","arrowright","html-keyboard-response","214","97365","0.0-214.0","LuckyBox_RN_to_RP","600","150","ArrowLeft","ArrowRight","0.7","0.3","2025-10-04T12:10:53.561Z","choice","71","0","","0","0.7","0.3","2025-10-04T12:12:30.945Z","arrowright","1","22"
"null","<div class=""feedback"">✅ 보상 +1</div>","null","html-keyboard-response","215","98067","0.0-215.0","LuckyBox_RN_to_RP","600","150","ArrowLeft","ArrowRight","0.7","0.3","2025-10-04T12:10:53.561Z","feedback","71","0","","","","","","","",""
"null","<div class=""center small"" style=""margin-top:16vh;"">잠시만요…</div>","null","html-keyboard-response","216","98468","0.0-216.0","LuckyBox_RN_to_RP","600","150","ArrowLeft","ArrowRight","0.7","0.3","2025-10-04T12:10:53.561Z","iti","71","0","","","","","","","",""
"183","
        <div class=""boxes"">
          <div>
            <div class=""box"">L</div>
            <div class=""label"">왼쪽 상자</div>
          </div>
          <div>
            <div class=""box"">R</div>
            <div class=""label"">오른쪽 상자</div>
          </div>
        </div>
        <div class=""keys"">키보드 <b>←</b> = 왼쪽 / <b>→</b> = 오른쪽</div>
      ","arrowright","html-keyboard-response","217","98652","0.0-217.0","LuckyBox_RN_to_RP","600","150","ArrowLeft","ArrowRight","0.7","0.3","2025-10-04T12:10:53.561Z","choice","72","0","","0","0.7","0.3","2025-10-04T12:12:32.232Z","arrowright","0","22"
"null","<div class=""feedback"">⭕ 꽝 (감점 없음)</div>","null","html-keyboard-response","218","99354","0.0-218.0","LuckyBox_RN_to_RP","600","150","ArrowLeft","ArrowRight","0.7","0.3","2025-10-04T12:10:53.561Z","feedback","72","0","","","","","","","",""
"null","<div class=""center small"" style=""margin-top:16vh;"">잠시만요…</div>","null","html-keyboard-response","219","99756","0.0-219.0","LuckyBox_RN_to_RP","600","150","ArrowLeft","ArrowRight","0.7","0.3","2025-10-04T12:10:53.561Z","iti","72","0","","","","","","","",""
"46","
        <div class=""boxes"">
          <div>
            <div class=""box"">L</div>
            <div class=""label"">왼쪽 상자</div>
          </div>
          <div>
            <div class=""box"">R</div>
            <div class=""label"">오른쪽 상자</div>
          </div>
        </div>
        <div class=""keys"">키보드 <b>←</b> = 왼쪽 / <b>→</b> = 오른쪽</div>
      ","arrowleft","html-keyboard-response","220","99805","0.0-220.0","LuckyBox_RN_to_RP","600","150","ArrowLeft","ArrowRight","0.7","0.3","2025-10-04T12:10:53.561Z","choice","73","0","","0","0.7","0.3","2025-10-04T12:12:33.385Z","arrowleft","1","23"
"null","<div class=""feedback"">✅ 보상 +1</div>","null","html-keyboard-response","221","100507","0.0-221.0","LuckyBox_RN_to_RP","600","150","ArrowLeft","ArrowRight","0.7","0.3","2025-10-04T12:10:53.561Z","feedback","73","0","","","","","","","",""
"null","<div class=""center small"" style=""margin-top:16vh;"">잠시만요…</div>","null","html-keyboard-response","222","100908","0.0-222.0","LuckyBox_RN_to_RP","600","150","ArrowLeft","ArrowRight","0.7","0.3","2025-10-04T12:10:53.561Z","iti","73","0","","","","","","","",""
"52","
        <div class=""boxes"">
          <div>
            <div class=""box"">L</div>
            <div class=""label"">왼쪽 상자</div>
          </div>
          <div>
            <div class=""box"">R</div>
            <div class=""label"">오른쪽 상자</div>
          </div>
        </div>
        <div class=""keys"">키보드 <b>←</b> = 왼쪽 / <b>→</b> = 오른쪽</div>
      ","arrowleft","html-keyboard-response","223","100962","0.0-223.0","LuckyBox_RN_to_RP","600","150","ArrowLeft","ArrowRight","0.7","0.3","2025-10-04T12:10:53.561Z","choice","74","0","","0","0.7","0.3","2025-10-04T12:12:34.542Z","arrowleft","1","24"
"null","<div class=""feedback"">✅ 보상 +1</div>","null","html-keyboard-response","224","101665","0.0-224.0","LuckyBox_RN_to_RP","600","150","ArrowLeft","ArrowRight","0.7","0.3","2025-10-04T12:10:53.561Z","feedback","74","0","","","","","","","",""
"null","<div class=""center small"" style=""margin-top:16vh;"">잠시만요…</div>","null","html-keyboard-response","225","102067","0.0-225.0","LuckyBox_RN_to_RP","600","150","ArrowLeft","ArrowRight","0.7","0.3","2025-10-04T12:10:53.561Z","iti","74","0","","","","","","","",""
"134","
        <div class=""boxes"">
          <div>
            <div class=""box"">L</div>
            <div class=""label"">왼쪽 상자</div>
          </div>
          <div>
            <div class=""box"">R</div>
            <div class=""label"">오른쪽 상자</div>
          </div>
        </div>
        <div class=""keys"">키보드 <b>←</b> = 왼쪽 / <b>→</b> = 오른쪽</div>
      ","arrowleft","html-keyboard-response","226","102203","0.0-226.0","LuckyBox_RN_to_RP","600","150","ArrowLeft","ArrowRight","0.7","0.3","2025-10-04T12:10:53.561Z","choice","75","0","","0","0.7","0.3","2025-10-04T12:12:35.783Z","arrowleft","0","24"
"null","<div class=""feedback"">⭕ 꽝 (감점 없음)</div>","null","html-keyboard-response","227","102906","0.0-227.0","LuckyBox_RN_to_RP","600","150","ArrowLeft","ArrowRight","0.7","0.3","2025-10-04T12:10:53.561Z","feedback","75","0","","","","","","","",""
"null","<div class=""center small"" style=""margin-top:16vh;"">잠시만요…</div>","null","html-keyboard-response","228","103308","0.0-228.0","LuckyBox_RN_to_RP","600","150","ArrowLeft","ArrowRight","0.7","0.3","2025-10-04T12:10:53.561Z","iti","75","0","","","","","","","",""
"137","
        <div class=""boxes"">
          <div>
            <div class=""box"">L</div>
            <div class=""label"">왼쪽 상자</div>
          </div>
          <div>
            <div class=""box"">R</div>
            <div class=""label"">오른쪽 상자</div>
          </div>
        </div>
        <div class=""keys"">키보드 <b>←</b> = 왼쪽 / <b>→</b> = 오른쪽</div>
      ","arrowright","html-keyboard-response","229","103446","0.0-229.0","LuckyBox_RN_to_RP","600","150","ArrowLeft","ArrowRight","0.7","0.3","2025-10-04T12:10:53.561Z","choice","76","0","","0","0.7","0.3","2025-10-04T12:12:37.026Z","arrowright","1","25"
"null","<div class=""feedback"">✅ 보상 +1</div>","null","html-keyboard-response","230","104148","0.0-230.0","LuckyBox_RN_to_RP","600","150","ArrowLeft","ArrowRight","0.7","0.3","2025-10-04T12:10:53.561Z","feedback","76","0","","","","","","","",""
"null","<div class=""center small"" style=""margin-top:16vh;"">잠시만요…</div>","null","html-keyboard-response","231","104550","0.0-231.0","LuckyBox_RN_to_RP","600","150","ArrowLeft","ArrowRight","0.7","0.3","2025-10-04T12:10:53.561Z","iti","76","0","","","","","","","",""
"240","
        <div class=""boxes"">
          <div>
            <div class=""box"">L</div>
            <div class=""label"">왼쪽 상자</div>
          </div>
          <div>
            <div class=""box"">R</div>
            <div class=""label"">오른쪽 상자</div>
          </div>
        </div>
        <div class=""keys"">키보드 <b>←</b> = 왼쪽 / <b>→</b> = 오른쪽</div>
      ","arrowright","html-keyboard-response","232","104791","0.0-232.0","LuckyBox_RN_to_RP","600","150","ArrowLeft","ArrowRight","0.7","0.3","2025-10-04T12:10:53.561Z","choice","77","0","","0","0.7","0.3","2025-10-04T12:12:38.371Z","arrowright","1","26"
"null","<div class=""feedback"">✅ 보상 +1</div>","null","html-keyboard-response","233","105494","0.0-233.0","LuckyBox_RN_to_RP","600","150","ArrowLeft","ArrowRight","0.7","0.3","2025-10-04T12:10:53.561Z","feedback","77","0","","","","","","","",""
"null","<div class=""center small"" style=""margin-top:16vh;"">잠시만요…</div>","null","html-keyboard-response","234","105896","0.0-234.0","LuckyBox_RN_to_RP","600","150","ArrowLeft","ArrowRight","0.7","0.3","2025-10-04T12:10:53.561Z","iti","77","0","","","","","","","",""
"414","
        <div class=""boxes"">
          <div>
            <div class=""box"">L</div>
            <div class=""label"">왼쪽 상자</div>
          </div>
          <div>
            <div class=""box"">R</div>
            <div class=""label"">오른쪽 상자</div>
          </div>
        </div>
        <div class=""keys"">키보드 <b>←</b> = 왼쪽 / <b>→</b> = 오른쪽</div>
      ","arrowright","html-keyboard-response","235","106312","0.0-235.0","LuckyBox_RN_to_RP","600","150","ArrowLeft","ArrowRight","0.7","0.3","2025-10-04T12:10:53.561Z","choice","78","0","","0","0.7","0.3","2025-10-04T12:12:39.892Z","arrowright","1","27"
"null","<div class=""feedback"">✅ 보상 +1</div>","null","html-keyboard-response","236","107015","0.0-236.0","LuckyBox_RN_to_RP","600","150","ArrowLeft","ArrowRight","0.7","0.3","2025-10-04T12:10:53.561Z","feedback","78","0","","","","","","","",""
"null","<div class=""center small"" style=""margin-top:16vh;"">잠시만요…</div>","null","html-keyboard-response","237","107417","0.0-237.0","LuckyBox_RN_to_RP","600","150","ArrowLeft","ArrowRight","0.7","0.3","2025-10-04T12:10:53.561Z","iti","78","0","","","","","","","",""
"235","
        <div class=""boxes"">
          <div>
            <div class=""box"">L</div>
            <div class=""label"">왼쪽 상자</div>
          </div>
          <div>
            <div class=""box"">R</div>
            <div class=""label"">오른쪽 상자</div>
          </div>
        </div>
        <div class=""keys"">키보드 <b>←</b> = 왼쪽 / <b>→</b> = 오른쪽</div>
      ","arrowright","html-keyboard-response","238","107654","0.0-238.0","LuckyBox_RN_to_RP","600","150","ArrowLeft","ArrowRight","0.7","0.3","2025-10-04T12:10:53.561Z","choice","79","0","","0","0.7","0.3","2025-10-04T12:12:41.234Z","arrowright","0","27"
"null","<div class=""feedback"">⭕ 꽝 (감점 없음)</div>","null","html-keyboard-response","239","108357","0.0-239.0","LuckyBox_RN_to_RP","600","150","ArrowLeft","ArrowRight","0.7","0.3","2025-10-04T12:10:53.561Z","feedback","79","0","","","","","","","",""
"null","<div class=""center small"" style=""margin-top:16vh;"">잠시만요…</div>","null","html-keyboard-response","240","108759","0.0-240.0","LuckyBox_RN_to_RP","600","150","ArrowLeft","ArrowRight","0.7","0.3","2025-10-04T12:10:53.561Z","iti","79","0","","","","","","","",""
"105","
        <div class=""boxes"">
          <div>
            <div class=""box"">L</div>
            <div class=""label"">왼쪽 상자</div>
          </div>
          <div>
            <div class=""box"">R</div>
            <div class=""label"">오른쪽 상자</div>
          </div>
        </div>
        <div class=""keys"">키보드 <b>←</b> = 왼쪽 / <b>→</b> = 오른쪽</div>
      ","arrowleft","html-keyboard-response","241","108865","0.0-241.0","LuckyBox_RN_to_RP","600","150","ArrowLeft","ArrowRight","0.7","0.3","2025-10-04T12:10:53.561Z","choice","80","0","","0","0.7","0.3","2025-10-04T12:12:42.445Z","arrowleft","0","27"
"null","<div class=""feedback"">⭕ 꽝 (감점 없음)</div>","null","html-keyboard-response","242","109567","0.0-242.0","LuckyBox_RN_to_RP","600","150","ArrowLeft","ArrowRight","0.7","0.3","2025-10-04T12:10:53.561Z","feedback","80","0","","","","","","","",""
"null","<div class=""center small"" style=""margin-top:16vh;"">잠시만요…</div>","null","html-keyboard-response","243","109969","0.0-243.0","LuckyBox_RN_to_RP","600","150","ArrowLeft","ArrowRight","0.7","0.3","2025-10-04T12:10:53.561Z","iti","80","0","","","","","","","",""
"228","
        <div class=""boxes"">
          <div>
            <div class=""box"">L</div>
            <div class=""label"">왼쪽 상자</div>
          </div>
          <div>
            <div class=""box"">R</div>
            <div class=""label"">오른쪽 상자</div>
          </div>
        </div>
        <div class=""keys"">키보드 <b>←</b> = 왼쪽 / <b>→</b> = 오른쪽</div>
      ","arrowleft","html-keyboard-response","244","110198","0.0-244.0","LuckyBox_RN_to_RP","600","150","ArrowLeft","ArrowRight","0.7","0.3","2025-10-04T12:10:53.561Z","choice","81","0","","0","0.7","0.3","2025-10-04T12:12:43.778Z","arrowleft","0","27"
"null","<div class=""feedback"">⭕ 꽝 (감점 없음)</div>","null","html-keyboard-response","245","110900","0.0-245.0","LuckyBox_RN_to_RP","600","150","ArrowLeft","ArrowRight","0.7","0.3","2025-10-04T12:10:53.561Z","feedback","81","0","","","","","","","",""
"null","<div class=""center small"" style=""margin-top:16vh;"">잠시만요…</div>","null","html-keyboard-response","246","111302","0.0-246.0","LuckyBox_RN_to_RP","600","150","ArrowLeft","ArrowRight","0.7","0.3","2025-10-04T12:10:53.561Z","iti","81","0","","","","","","","",""
"63","
        <div class=""boxes"">
          <div>
            <div class=""box"">L</div>
            <div class=""label"">왼쪽 상자</div>
          </div>
          <div>
            <div class=""box"">R</div>
            <div class=""label"">오른쪽 상자</div>
          </div>
        </div>
        <div class=""keys"">키보드 <b>←</b> = 왼쪽 / <b>→</b> = 오른쪽</div>
      ","arrowright","html-keyboard-response","247","111367","0.0-247.0","LuckyBox_RN_to_RP","600","150","ArrowLeft","ArrowRight","0.7","0.3","2025-10-04T12:10:53.561Z","choice","82","0","","0","0.7","0.3","2025-10-04T12:12:44.947Z","arrowright","0","27"
"null","<div class=""feedback"">⭕ 꽝 (감점 없음)</div>","null","html-keyboard-response","248","112069","0.0-248.0","LuckyBox_RN_to_RP","600","150","ArrowLeft","ArrowRight","0.7","0.3","2025-10-04T12:10:53.561Z","feedback","82","0","","","","","","","",""
"null","<div class=""center small"" style=""margin-top:16vh;"">잠시만요…</div>","null","html-keyboard-response","249","112472","0.0-249.0","LuckyBox_RN_to_RP","600","150","ArrowLeft","ArrowRight","0.7","0.3","2025-10-04T12:10:53.561Z","iti","82","0","","","","","","","",""
"232","
        <div class=""boxes"">
          <div>
            <div class=""box"">L</div>
            <div class=""label"">왼쪽 상자</div>
          </div>
          <div>
            <div class=""box"">R</div>
            <div class=""label"">오른쪽 상자</div>
          </div>
        </div>
        <div class=""keys"">키보드 <b>←</b> = 왼쪽 / <b>→</b> = 오른쪽</div>
      ","arrowleft","html-keyboard-response","250","112706","0.0-250.0","LuckyBox_RN_to_RP","600","150","ArrowLeft","ArrowRight","0.7","0.3","2025-10-04T12:10:53.561Z","choice","83","0","","0","0.7","0.3","2025-10-04T12:12:46.287Z","arrowleft","0","27"
"null","<div class=""feedback"">⭕ 꽝 (감점 없음)</div>","null","html-keyboard-response","251","113409","0.0-251.0","LuckyBox_RN_to_RP","600","150","ArrowLeft","ArrowRight","0.7","0.3","2025-10-04T12:10:53.561Z","feedback","83","0","","","","","","","",""
"null","<div class=""center small"" style=""margin-top:16vh;"">잠시만요…</div>","null","html-keyboard-response","252","113811","0.0-252.0","LuckyBox_RN_to_RP","600","150","ArrowLeft","ArrowRight","0.7","0.3","2025-10-04T12:10:53.561Z","iti","83","0","","","","","","","",""
"189","
        <div class=""boxes"">
          <div>
            <div class=""box"">L</div>
            <div class=""label"">왼쪽 상자</div>
          </div>
          <div>
            <div class=""box"">R</div>
            <div class=""label"">오른쪽 상자</div>
          </div>
        </div>
        <div class=""keys"">키보드 <b>←</b> = 왼쪽 / <b>→</b> = 오른쪽</div>
      ","arrowleft","html-keyboard-response","253","114002","0.0-253.0","LuckyBox_RN_to_RP","600","150","ArrowLeft","ArrowRight","0.7","0.3","2025-10-04T12:10:53.561Z","choice","84","0","","0","0.7","0.3","2025-10-04T12:12:47.582Z","arrowleft","1","28"
"null","<div class=""feedback"">✅ 보상 +1</div>","null","html-keyboard-response","254","114704","0.0-254.0","LuckyBox_RN_to_RP","600","150","ArrowLeft","ArrowRight","0.7","0.3","2025-10-04T12:10:53.561Z","feedback","84","0","","","","","","","",""
"null","<div class=""center small"" style=""margin-top:16vh;"">잠시만요…</div>","null","html-keyboard-response","255","115106","0.0-255.0","LuckyBox_RN_to_RP","600","150","ArrowLeft","ArrowRight","0.7","0.3","2025-10-04T12:10:53.561Z","iti","84","0","","","","","","","",""
"150","
        <div class=""boxes"">
          <div>
            <div class=""box"">L</div>
            <div class=""label"">왼쪽 상자</div>
          </div>
          <div>
            <div class=""box"">R</div>
            <div class=""label"">오른쪽 상자</div>
          </div>
        </div>
        <div class=""keys"">키보드 <b>←</b> = 왼쪽 / <b>→</b> = 오른쪽</div>
      ","arrowleft","html-keyboard-response","256","115258","0.0-256.0","LuckyBox_RN_to_RP","600","150","ArrowLeft","ArrowRight","0.7","0.3","2025-10-04T12:10:53.561Z","choice","85","0","","0","0.7","0.3","2025-10-04T12:12:48.838Z","arrowleft","0","28"
"null","<div class=""feedback"">⭕ 꽝 (감점 없음)</div>","null","html-keyboard-response","257","115960","0.0-257.0","LuckyBox_RN_to_RP","600","150","ArrowLeft","ArrowRight","0.7","0.3","2025-10-04T12:10:53.561Z","feedback","85","0","","","","","","","",""
"null","<div class=""center small"" style=""margin-top:16vh;"">잠시만요…</div>","null","html-keyboard-response","258","116363","0.0-258.0","LuckyBox_RN_to_RP","600","150","ArrowLeft","ArrowRight","0.7","0.3","2025-10-04T12:10:53.561Z","iti","85","0","","","","","","","",""
"226","
        <div class=""boxes"">
          <div>
            <div class=""box"">L</div>
            <div class=""label"">왼쪽 상자</div>
          </div>
          <div>
            <div class=""box"">R</div>
            <div class=""label"">오른쪽 상자</div>
          </div>
        </div>
        <div class=""keys"">키보드 <b>←</b> = 왼쪽 / <b>→</b> = 오른쪽</div>
      ","arrowleft","html-keyboard-response","259","116591","0.0-259.0","LuckyBox_RN_to_RP","600","150","ArrowLeft","ArrowRight","0.7","0.3","2025-10-04T12:10:53.561Z","choice","86","0","","0","0.7","0.3","2025-10-04T12:12:50.171Z","arrowleft","0","28"
"null","<div class=""feedback"">⭕ 꽝 (감점 없음)</div>","null","html-keyboard-response","260","117293","0.0-260.0","LuckyBox_RN_to_RP","600","150","ArrowLeft","ArrowRight","0.7","0.3","2025-10-04T12:10:53.561Z","feedback","86","0","","","","","","","",""
"null","<div class=""center small"" style=""margin-top:16vh;"">잠시만요…</div>","null","html-keyboard-response","261","117696","0.0-261.0","LuckyBox_RN_to_RP","600","150","ArrowLeft","ArrowRight","0.7","0.3","2025-10-04T12:10:53.561Z","iti","86","0","","","","","","","",""
"230","
        <div class=""boxes"">
          <div>
            <div class=""box"">L</div>
            <div class=""label"">왼쪽 상자</div>
          </div>
          <div>
            <div class=""box"">R</div>
            <div class=""label"">오른쪽 상자</div>
          </div>
        </div>
        <div class=""keys"">키보드 <b>←</b> = 왼쪽 / <b>→</b> = 오른쪽</div>
      ","arrowleft","html-keyboard-response","262","117927","0.0-262.0","LuckyBox_RN_to_RP","600","150","ArrowLeft","ArrowRight","0.7","0.3","2025-10-04T12:10:53.561Z","choice","87","0","","0","0.7","0.3","2025-10-04T12:12:51.508Z","arrowleft","1","29"
